timestamp,ax,ay,az,gyro_z,gyro_x,gyro_y,heading,mag_x,mag_y,mag_z
1788030581.7679026,-107.0,-15.0,4211.0,-42.01061648000012,-59.19305223999999,-86.73180761000022,346.28232161614477,756.8984756463531,-516.6832519127854,-878.0032924671855
1788030581.8323288,-88.0,-24.0,4191.0,-41.607726790000115,-59.02110892999999,-86.70119808000021,346.6495047324343,751.9789943121004,-490.998801052925,-866.0955918073536
1788030581.8986712,-189.0,10.0,4192.0,-41.563312070000116,-58.946095529999994,-86.77613980000022,346.8023369314361,720.3704304702206,-507.43775989495634,-896.1476764078758
1788030581.9651778,-133.0,9.0,4167.0,-41.25537143000012,-58.954418249999996,-86.80110796000022,346.9687631590306,733.1354777756045,-477.08973709486975,-922.7170408434528
1788030582.0396557,-181.0,50.0,4177.0,-41.14986652000012,-58.7379457,-86.82886758000022,346.9165429656639,732.1668468129218,-484.65308795984566,-892.4514460592336
1788030582.1050289,-73.0,-15.0,4156.0,-41.46352532000012,-58.6991048,-86.83439828000022,346.46004375484125,741.0355280201438,-527.4107999849155,-851.4447325810016
1788030582.1709342,-164.0,27.0,4139.0,-41.48599084000012,-58.74403584,-86.86248018000022,346.13976877053835,701.0747867692869,-518.2198764360272,-866.6571954903934
1788030582.258824,-115.0,-6.0,4159.0,-41.41137630000012,-58.438331,-86.88203104000021,346.40883682285187,747.0487131993013,-273.2561509125663,-833.1492607395824
1788030582.3273833,-66.0,23.0,4157.0,-41.32268798000012,-58.49390736,-86.88760654000022,346.3888850295724,728.4532727077823,-488.37209974996506,-836.4947240590336
1788030582.3914325,-118.0,-29.0,4195.0,-41.29777400000012,-58.385946780000005,-86.89867942000022,346.59644513546186,722.8848866268438,-478.4513141418095,-898.3856040320493
1788030582.464967,-92.0,19.0,4173.0,-41.31433138000012,-58.32223509000001,-86.90698163000022,346.81497558290164,730.5098467793051,-457.0506207744355,-864.3030449899023
1788030582.515534,-119.0,-27.0,4182.0,-41.519122680000116,-58.21707199000001,-86.87653968000022,346.8409195257471,725.1173258378009,-491.5082244015824,-835.3660993749168
1788030582.582829,-94.0,16.0,4179.0,-41.560637440000114,-58.283537550000005,-86.95408022000022,346.5263711693509,721.6097612012713,-494.32658602835886,-864.3717597518131
1788030582.6777096,-150.0,41.0,4176.0,-41.69083884000012,-58.363897550000004,-86.89866780000023,346.54023089528613,725.7158229688375,-493.1267848304808,-877.398881694677
1788030582.7442083,-112.0,-25.0,4195.0,-41.882162000000115,-58.31667135,-86.90696539000022,346.07048319708224,698.7178748057368,-503.8115770573205,-862.093761207021
1788030582.799426,-160.0,43.0,4162.0,-41.63569697000011,-58.40528799,-86.93465809000023,346.3765283466212,761.645827630708,-487.4964864964365,-897.721389486758
1788030582.8501327,-115.0,-29.0,4194.0,-41.63000996000011,-58.58002843,-86.94295666000023,346.75967958560193,725.8932836402975,-485.869031451067,-879.3033614716114
1788030582.9019635,-175.0,53.0,4163.0,-41.43034028000011,-58.541203769999996,-86.99287408000023,346.903920136258,735.469683846916,-477.56541685325084,-876.2613373646108
1788030582.9669232,-113.0,-13.0,4172.0,-41.42811456000011,-58.36247753,-87.03150904000023,347.0819759895717,702.016464466845,-452.6632797402643,-906.5971930393862
1788030583.0171564,-140.0,56.0,4175.0,-41.14179216000011,-58.60750343,-87.06454624000023,347.0107301281945,740.8067960882274,-495.26582805935425,-860.8661767713932
1788030583.109315,-155.0,-4.0,4172.0,-41.291235930000106,-58.64903786000001,-87.06178887000023,346.87203911002246,741.2407122394536,-518.4228795417589,-919.1288549512594
1788030583.1794286,-81.0,-12.0,4178.0,-41.12796618000011,-58.486584380000004,-87.10085370000023,346.40825746613746,738.3206412226136,-512.889151637177,-857.8227252318941
1788030583.2448165,-169.0,35.0,4154.0,-40.81222460000011,-58.4613785,-87.16179808000024,346.57499149077205,723.4780140408112,-493.5011635205663,-843.4763312366911
1788030583.313803,-73.0,21.0,4180.0,-40.743209850000106,-58.37027903,-87.13695277000024,346.67198737215205,740.848081626203,-482.6947159009377,-876.5131522616298
1788030583.3800616,-176.0,65.0,4166.0,-41.22561065000011,-58.42292337,-87.15081914000024,347.0173444664343,732.6240082040384,-463.4121232452298,-847.9209165142217
1788030583.4328187,-78.0,0.0,4161.0,-41.037347890000106,-58.378626249999996,-87.16189342000024,347.08182017146083,723.6443500745391,-472.6484853695022,-860.1210791587839
1788030583.4833128,-166.0,40.0,4151.0,-40.968054890000104,-58.36475995,-87.22280980000025,346.960952781715,733.8810271717164,-479.8963556830263,-852.4036327892647
1788030583.5518217,-85.0,-15.0,4173.0,-40.8351366500001,-58.22076519,-87.22834806000024,346.90975184004157,738.956913783791,-500.5649741027745,-849.7531954774935
1788030583.6207726,-172.0,40.0,4159.0,-40.9376195900001,-58.43680675,-87.25051692000025,346.701346145362,746.1456633834564,-513.6520521678997,-878.3456599603742
1788030583.6732316,-69.0,-7.0,4180.0,-41.026292230000095,-58.33705003,-87.24497488000026,346.69205009873605,723.8924869014928,-486.37699579613474,-832.605732703253
1788030583.7437072,-182.0,52.0,4160.0,-40.876638460000095,-58.5088917,-87.29763434000026,346.85234041035756,753.5926896766154,-493.65333963433596,-907.2619114184639
1788030583.8199627,-113.0,-16.0,4175.0,-40.896133460000094,-58.47553782,-87.27543965000027,347.1082440265902,713.8843822143402,-458.9521418910135,-890.7593964651174
1788030583.870042,-174.0,6.0,4192.0,-40.94049778000009,-58.66685895,-87.25603026000026,346.9916105517685,718.1367093931887,-499.55080927834484,-861.3892470056384
1788030583.920465,-105.0,-7.0,4145.0,-40.835054540000094,-58.69732568,-87.27822425000025,346.9076181557635,729.8190953225522,-514.1313557647169,-843.63685231146
1788030583.990271,-184.0,7.0,4205.0,-40.85446785000009,-58.81103221,-87.29763756000025,346.77650362025355,725.933430263022,-511.6768319843917,-882.717705649444
1788030584.0776355,-91.0,6.0,4156.0,-41.062471590000094,-58.921948330000006,-87.36141820000026,346.75989620653917,753.9883353854191,-495.31267829725175,-847.9000486415162
1788030584.173817,-61.0,-37.0,4188.0,-41.1115656000001,-58.53275911,-87.30328572000026,346.76599061831337,737.6554512317605,-497.5117257527201,-846.0557664318255
1788030584.2416584,-160.0,51.0,4194.0,-40.8254530600001,-58.543646280000004,-87.40040211000026,347.1175287788076,759.8027180358005,-477.8186587582306,-934.2435568061661
1788030584.2932978,-67.0,-29.0,4183.0,-41.0420785600001,-58.48810128,-87.40595661000026,347.1894647621187,728.8413038866889,-477.80813944611486,-857.6224169916419
1788030584.3765264,-152.0,53.0,4185.0,-41.0117241100001,-58.57123146,-87.43647178000026,347.0438619656627,715.7806226789387,-493.22978017945167,-874.1040727291042
1788030584.4423969,-166.0,38.0,4143.0,-40.9923243800001,-58.28242658,-87.41426862000027,346.9129949164596,718.1752055173125,-509.1840692520425,-830.2470711697941
1788030584.5076783,-172.0,60.0,4164.0,-41.0117656200001,-58.24909874,-87.41982326000027,346.1629949164596,704.1977695527677,-742.6336032868069,-856.5124904841695
1788030584.5949297,-123.0,-14.0,4129.0,-40.861956380000095,-58.17465108,-87.40879630000028,345.98061200761447,743.838619687903,-540.1921629259359,-911.7632082114864
1788030584.6615226,-74.0,5.0,4136.0,-40.9008745600001,-58.10550333,-87.37276499000028,346.0380129649886,743.5123133019432,-496.8783645378845,-902.1030960478578
1788030584.7258408,-147.0,63.0,4151.0,-40.692949920000096,-57.955772069999995,-87.32844743000028,346.5566290347143,737.6398701105088,-470.83363008497827,-924.8533275669282
1788030584.7962852,-176.0,37.0,4129.0,-40.5818907200001,-57.91149958999999,-87.34227348000027,346.70181758268194,719.7930932881388,-488.0885508695716,-868.8956356051749
1788030584.8634207,-140.0,49.0,4143.0,-40.7093157800001,-57.842246839999994,-87.36443436000027,346.8302556697266,723.1994522364053,-469.1054621640271,-902.1439718710413
1788030584.9229736,-124.0,-27.0,4177.0,-40.6572653200001,-57.75042917,-87.36731962000027,347.0269758512743,733.8496723896468,-476.630622130491,-867.9595431927239
1788030585.0079663,-64.0,16.0,4137.0,-40.2354372700001,-57.662610109999996,-87.43346374000026,346.78769459190494,729.2937996836521,-474.4614591497774,-880.5129328995305
1788030585.072034,-166.0,58.0,4151.0,-40.4070470300001,-57.662757109999994,-87.42786528000028,346.7758280870127,764.4784144713024,-518.346497744735,-911.2911871630627
1788030585.1411874,-72.0,21.0,4163.0,-40.6482383300001,-57.54777056,-87.41664708000027,346.77296297778014,743.1799549004379,-492.1175378684579,-863.7679715092381
1788030585.2403576,-72.0,20.0,4149.0,-40.64063675000009,-57.564068799999994,-87.45735782000027,346.96490982744047,722.7972429287064,-451.4456419683676,-910.5069335717252
1788030585.3073332,-142.0,58.0,4141.0,-40.69934134000009,-57.583963849999996,-87.42419756000027,346.9841867348979,706.9341907471803,-477.66191769768255,-885.6302499170195
1788030585.3754253,-77.0,10.0,4137.0,-40.64941636000009,-57.61447355999999,-87.40478229000027,346.9830171772601,706.707582501707,-467.5472588773521,-864.7049238439167
1788030585.447173,-160.0,38.0,4142.0,-41.20695117000009,-57.56452995999999,-87.34653060000028,346.8750881352223,726.9407664604624,-482.76928577874355,-878.4773721348627
1788030585.514563,-148.0,19.0,4144.0,-40.73797973000009,-57.692132749999985,-87.36037121000028,347.1338625095675,720.940587914741,-471.72176179341403,-851.7588036645179
1788030585.5831063,-86.0,17.0,4121.0,-40.76010085000009,-57.761592839999985,-87.35481783000027,347.4919396094674,735.6579005235824,-462.5580880426988,-926.6469630420796
1788030585.6501324,-149.0,-3.0,4108.0,-40.537982450000094,-57.78102819999999,-87.32705303000027,347.57659695679763,724.96511296629,-472.7739998778128,-847.4064821707906
1788030585.7151158,-147.0,44.0,4140.0,-40.593328650000096,-57.78379550999999,-87.32151841000027,347.4101476293401,697.8762585033578,-472.80171951772115,-862.3368301739004
1788030585.7817597,-172.0,54.0,4160.0,-40.8038140300001,-57.806001679999994,-87.26891236000027,347.01352049531135,742.1282796739617,-518.9673405046633,-867.1117160217163
1788030585.8337488,-63.0,-26.0,4155.0,-40.6349483400001,-57.656514019999996,-87.23569288000027,347.1567033359928,722.9687561399377,-467.25213265039355,-882.0545247421902
1788030585.901177,-190.0,52.0,4098.0,-40.6155556100001,-57.675906749999996,-87.27447834000027,347.2629948646336,726.5995116629852,-470.95511978571244,-822.8538692464292
1788030585.9685915,-70.0,-51.0,4131.0,-40.2383442300001,-57.60940227,-87.28283067000027,347.72230702919785,737.1758976143559,-458.35388787545554,-834.5215295201884
1788030586.0196316,-144.0,48.0,4139.0,-40.2384570700001,-57.78405598,-87.28281975000026,347.5669972326357,719.2396558801212,-512.1037319471145,-846.7195785258343
1788030586.0832627,-79.0,-25.0,4152.0,-40.243997150000105,-57.74250538,-87.25788939000026,347.6908444609409,728.9986389691281,-465.39084962863114,-858.6606627953989
1788030586.1481345,-168.0,60.0,4138.0,-40.095567890000105,-57.45506906999999,-87.34733833000026,347.4800385124098,732.6601715310857,-481.99252542806653,-850.4892634048277
1788030586.2148948,-64.0,-12.0,4168.0,-40.27846445000011,-57.59639822999999,-87.35010949000025,347.5021227990022,735.4647707466215,-477.73947588013425,-859.8189563020238
1788030586.2890415,-162.0,36.0,4167.0,-40.28681174000011,-57.47713929999999,-87.29738017000025,347.55538193327993,704.8165192146117,-469.9287894220039,-836.2630908283023
1788030586.3549547,-181.0,39.0,4135.0,-40.32564060000011,-57.66286000999999,-87.37776138000027,347.7317123872376,715.8161698673193,-472.74545676810504,-856.0304071499155
1788030586.421844,-83.0,-35.0,4150.0,-40.289600260000114,-57.66842136999998,-87.35003368000027,347.6566417190671,723.5676219034999,-490.2151932820805,-860.8658930162577
1788030586.5137916,-162.0,32.0,4136.0,-40.21195339000011,-57.63237318999998,-87.39717259000027,347.40852503238784,739.3051669724986,-485.53771346838806,-804.2451301865763
1788030586.5707784,-87.0,-16.0,4148.0,-40.11488684000011,-57.463200059999984,-87.37775928000026,347.2811826174844,756.4944067294199,-513.8263464718686,-855.1734866171487
1788030586.6409688,-163.0,50.0,4132.0,-40.198092760000115,-57.73494145999998,-87.36943698000026,347.3503576554679,758.7686926504441,-485.5661869930651,-886.6187552713062
1788030586.711883,-181.0,54.0,4102.0,-39.95929014000012,-57.63773035999998,-87.36666316000026,347.4571716940441,741.4470519450822,-490.16904887543967,-853.6426443042192
1788030586.7789037,-75.0,-14.0,4190.0,-39.81767629000012,-57.879318909999974,-87.36111146000026,347.3928915499134,727.0661855887404,-495.83221998888456,-816.2537305210258
1788030586.8505096,-142.0,48.0,4179.0,-39.55195139000012,-57.929121949999974,-87.35834555000027,347.13760768090907,722.5482312637105,-512.9292720934498,-864.2501109006371
1788030586.9208448,-71.0,-3.0,4165.0,-39.71806979000012,-57.895898269999975,-87.31681595000026,347.08632479777054,709.184631860715,-473.8480512902946,-853.8237494965583
1788030586.9878352,-145.0,59.0,4159.0,-39.75961507000012,-57.94295338999998,-87.27528075000026,346.2621413395067,719.7894562385172,-766.1998357964584,-866.294763989582
1788030587.0539966,-168.0,31.0,4147.0,-39.96186040000013,-57.976197229999975,-87.34452146000027,346.27475308526505,752.7176498722988,-505.158118611314,-895.231875701038
1788030587.1422331,-69.0,36.0,4194.0,-39.84208669000012,-57.63629304999998,-87.37241324000026,346.85168527842217,762.6862736641353,-462.54048674576575,-910.7997893509162
1788030587.206874,-301.0,-30.0,4255.0,-39.72912636000012,-57.63353791999998,-87.28975934000026,347.39535700122434,765.2672135699412,-478.2903617625472,-886.135645918354
1788030587.2736006,-369.0,-56.0,4177.0,-40.013048950000126,-57.672129339999984,-87.33662035000026,348.14535700122434,759.4713939942292,-450.1676470542476,-909.8229398114286
1788030587.3619332,-70.0,11.0,4090.0,-40.55905903000013,-57.63609529999999,-87.02928409000026,348.1268536528429,773.1397328061968,-480.2511339333871,-891.1229069293255
1788030587.413849,-350.0,-41.0,4039.0,-40.37587127000013,-57.56391129999999,-86.91827053000026,348.28755989141814,800.2024096645628,-513.6168495740336,-846.6513125780473
1788030587.482961,-352.0,16.0,4116.0,-40.28158281000013,-57.644333809999985,-86.56330221000026,348.98813180457756,795.4455285745017,-477.57254760401594,-934.4057890685688
1788030587.5755267,-206.0,-28.0,4451.0,-41.04481066000014,-57.38894769999998,-85.80284209000025,349.39014702434935,782.9496185231346,-451.5964767170903,-954.9594812772572
1788030587.6387956,-208.0,-189.0,4118.0,-40.81460103000014,-57.06166171999998,-85.20651594000026,349.9936229131281,783.9266892650146,-464.34369509869384,-922.0137803587587
1788030587.7058856,-603.0,79.0,4035.0,-41.12820789000014,-56.39844118999998,-84.15477084000025,350.58335369685983,769.0829231679609,-483.3346196738245,-895.4347550511517
1788030587.769803,-735.0,218.0,4152.0,-40.81195965000014,-56.35959846999997,-83.76360531000024,350.6160399128068,776.2427553379506,-468.7200943200904,-904.1907309795632
1788030587.835049,-1166.0,126.0,3944.0,-41.21488420000014,-56.306801459999974,-83.80806595000024,350.7661097271015,760.30871333498,-520.416289214914,-913.7795022517568
1788030587.9024131,2.0,-848.0,4682.0,-41.18419487000014,-56.17338684999997,-84.27834674000025,350.7661097271015,837.6240577196811,-465.7408283675638,-950.5677664125075
1788030587.9806821,-196.0,83.0,4082.0,-42.73295929000014,-55.84806240999997,-83.12179239000025,351.0649723769212,727.4333539135754,-437.4197228413874,-962.9580175718424
1788030588.0329013,1200.0,174.0,5351.0,-43.25337149000014,-55.88681650999997,-82.10864949000025,350.3149723769212,756.3827587019013,-458.94501185268405,-863.9007086649426
1788030588.104104,-772.0,60.0,3915.0,-43.46371624000014,-55.55459944999996,-79.06637032000025,350.7323273777136,656.3177001041205,-422.0551676150305,-897.942747972347
1788030588.1980662,-767.0,329.0,3606.0,-45.27054112000014,-54.97797332999997,-73.91603177000025,348.70095898609054,506.35675493215876,-443.888078351803,-885.7266558723121
1788030588.262571,-1422.0,404.0,3585.0,-45.95248756000014,-54.77560710999997,-72.25551991000025,348.7378537627303,472.2392753658519,-396.2070579769882,-919.8919365223792
1788030588.3262997,-510.0,166.0,4228.0,-46.68935446000014,-54.484435809999965,-71.96982751000024,348.58746732075355,590.0851220491022,-406.54611144291,-1136.4365132644386
1788030588.3908906,-528.0,-666.0,3447.0,-47.02436837000014,-54.700395189999966,-72.17194334000024,349.33746732075355,575.1789931959955,-410.7653908785725,-845.1177514099111
1788030588.4414306,-1177.0,-126.0,3626.0,-47.23781468000014,-54.45102578999997,-72.39911560000024,350.1811857934176,638.9588617117773,-430.96781234912453,-848.4837825707718
1788030588.5100422,-1883.0,-75.0,3915.0,-47.07424603000014,-54.48983868999997,-72.45456260000024,350.9311857934176,549.8464298791338,-401.5525363630584,-852.9255216401273
1788030588.593035,-1418.0,9.0,3292.0,-47.41768017000014,-54.440148699999966,-72.83693991000024,351.35941817589566,672.3834111683136,-445.8885714346466,-882.1748648570149
1788030588.6452143,-1418.0,9.0,3292.0,-47.41768017000014,-54.440148699999966,-72.83693991000024,351.35941817589566,672.3834111683136,-445.8885714346466,-882.1748648570149
1788030588.7098858,-947.0,-131.0,4048.0,-47.17371204000014,-54.387406359999964,-72.89507127000023,352.55910854123397,642.9794914518984,-390.19092195727177,-987.006551888042
1788030588.7743897,-1191.0,-25.0,3909.0,-47.231700180000146,-54.462344859999966,-72.98669049000024,353.4656603817375,641.6936100211196,-413.81576927495934,-904.5115617072714
1788030588.835679,-1028.0,516.0,4250.0,-47.22955440000015,-54.276364519999966,-73.09764861000023,352.17754146220483,628.4665927796414,-450.0900881593603,-904.348469522641
1788030588.904042,-2476.0,753.0,3380.0,-47.21844316000015,-54.18469678999997,-73.13376014000023,352.6472802144173,614.495022106478,-411.96992271528364,-901.1861139576373
1788030588.9702141,-1538.0,375.0,4522.0,-46.83564809000015,-54.27596145999997,-73.35562325000024,352.93480165010754,641.5374688205063,-455.66482957504513,-857.53016186466
1788030589.0388143,-1170.0,-87.0,4095.0,-46.916200520000146,-54.065084219999974,-73.37784097000024,353.32110145625774,596.2345976727264,-444.43628150412195,-873.3772805361607
1788030589.1039243,-1340.0,281.0,4152.0,-46.97740320000015,-54.18470763999998,-73.22761621000024,352.57110145625774,561.7977989184552,-458.5971276511315,-827.4841507019119
1788030589.1722846,-1878.0,578.0,4660.0,-46.97006356000015,-54.479431579999975,-72.86102831000024,352.57110145625774,533.245916019235,-443.04126501658635,-752.9694000528825
1788030589.2235851,-1671.0,481.0,4004.0,-47.07275706000015,-54.482207079999974,-72.96649731000024,351.82110145625774,497.8386101219791,-460.455374314736,-791.020872213396
1788030589.2867298,-2137.0,507.0,3498.0,-46.85230928000015,-54.297512569999974,-73.27801782000024,350.6596161110039,517.6069963352812,-455.11038872679114,-697.1832624507639
1788030589.3521602,-58.0,-378.0,4386.0,-46.54545959000015,-54.13244836999998,-74.37970540000025,350.6596161110039,433.86631595215226,-459.8973361500394,-885.1899348804983
1788030589.4186735,-659.0,108.0,3704.0,-46.52606294000015,-54.334727719999975,-75.04750435000025,349.9096161110039,409.96094798154957,-420.3344812231658,-829.4258638481111
1788030589.4815583,-857.0,170.0,3588.0,-46.506635910000156,-54.60636460999997,-77.68044774000025,348.4096161110039,478.1026130506805,-446.17590842065977,-883.2170791164515
1788030589.547699,-382.0,154.0,3879.0,-46.495491070000156,-55.54370513999997,-81.74022003000024,346.9096161110039,551.5839322688335,-449.79314930074804,-884.5388586021675
1788030589.6128328,465.0,366.0,4377.0,-46.126861620000156,-56.070318639999975,-83.64434358000024,346.1596161110039,641.8615469647062,-492.4370425150507,-899.2189205232606
1788030589.703211,-871.0,-997.0,3967.0,-44.73757127000015,-55.700414279999976,-83.43559056000024,346.9096161110039,631.4566742245665,-520.8447651073335,-859.0988514199664
1788030589.7696261,-4858.0,1238.0,4041.0,-43.56679187000015,-55.141318679999976,-83.32487856000023,347.6596161110039,610.7424291006299,-483.4993128176301,-884.7809489506722
1788030589.8199203,-2624.0,1209.0,2916.0,-43.61397894000015,-55.246795659999975,-84.69607930000024,348.4096161110039,653.0346749931962,-480.76855813124996,-920.0447193345815
1788030589.8768842,-883.0,-410.0,6123.0,-41.69348771000015,-56.348541339999976,-89.42479595000025,348.4096161110039,760.412444359886,-477.54341630159433,-959.8541947492898
1788030589.9399002,2337.0,-3194.0,5775.0,-40.439278110000146,-56.226450139999976,-88.35649795000025,349.1596161110039,751.6713059673848,-469.8789515918963,-908.2904963501909
1788030590.0068138,-263.0,1199.0,6201.0,-39.571008400000146,-56.359580899999976,-89.01393109000024,350.2013984283565,746.7539045462352,-266.4170391256301,-893.4785409194601
1788030590.0712645,-373.0,179.0,5112.0,-40.15357570000015,-56.209602679999975,-88.84208963000025,349.06420632001345,720.6900137353936,-482.4291212331056,-914.6665490779769
1788030590.1365702,-158.0,-750.0,3787.0,-39.925680480000146,-56.30409581999997,-88.85320647000025,349.81420632001345,786.9809712507875,-505.4824241942062,-940.0665230455791
1788030590.186731,27.0,-295.0,4390.0,-39.80209856000015,-56.472616619999975,-88.81950231000025,349.72401812670705,726.4447568837638,-492.14549278545184,-871.9685272317093
1788030590.2568848,121.0,354.0,4242.0,-39.22537696000015,-56.41417508999997,-88.89169898000024,348.2288736417336,753.909274417303,-521.8265284189692,-882.3553852254403
1788030590.3137267,-49.0,-12.0,4175.0,-39.456274480000154,-56.20298284999997,-88.89998082000024,348.27136832534813,755.0258708786104,-488.9367758673015,-961.2741377407737
1788030590.3778894,-184.0,152.0,4141.0,-39.175765160000154,-56.26408388999997,-88.96108186000023,347.8858740270199,739.9456703354942,-498.16115967586836,-880.8850242348899
1788030590.4306645,-799.0,164.0,4440.0,-39.345029010000154,-56.253068549999966,-89.00543757000024,347.4259315261367,770.0090251221002,-542.2100213161914,-899.5026192642081
1788030590.496848,152.0,-103.0,4226.0,-40.367297740000154,-56.36387322999997,-89.02484479000024,346.6760597449583,820.9338698372841,-574.7019356225272,-922.131138255618
1788030590.5671737,-483.0,220.0,4161.0,-40.71884390000015,-56.25038194999997,-89.11619143000024,346.61908618899264,846.5383102332721,-588.6857351504432,-951.7416668759679
1788030590.6348412,-70.0,-68.0,4162.0,-41.480410440000156,-56.30853388999997,-88.99160893000024,347.19815936744897,921.4326850643993,-582.4268758254271,-1006.2094387108166
1788030590.7019444,-11.0,138.0,4453.0,-42.28661787000016,-56.120168999999976,-88.74227383000024,346.8129256333998,884.8126992285013,-585.4144962552232,-1040.6747835983904
1788030590.771986,-67.0,372.0,4076.0,-43.073140390000155,-56.03430118999998,-88.64257619000026,346.6023524703733,889.158105982366,-575.4011385031883,-1007.2163045044318
1788030590.8419774,325.0,357.0,4309.0,-43.641055990000154,-56.07585598999998,-88.41540995000025,345.8523524703733,875.3444865303084,-563.9284088358113,-1025.7342072129798
1788030590.9119873,357.0,-239.0,3666.0,-45.193803970000154,-56.441698809999984,-88.16869194000026,346.29023309221657,829.2847488091186,-586.3887751880299,-984.5957902170808
1788030590.9727578,742.0,-39.0,4053.0,-45.77893229000016,-56.54707736999998,-88.09936394000026,345.54023309221657,899.0235103326463,-630.2098328023278,-999.0334143580496
1788030591.0406823,804.0,-707.0,5085.0,-47.43809525000015,-57.021520289999984,-88.49889482000026,345.54023309221657,881.0700647428617,-528.2229515779034,-879.3362702967556
1788030591.1122801,11.0,-875.0,5533.0,-49.33517813000015,-56.38227776999999,-88.68331766000026,345.54023309221657,995.9171480736815,-580.8866274637493,-1005.8086398576808
1788030591.1784213,-1313.0,-247.0,3523.0,-49.86833411000015,-56.64223865999999,-87.47224185000026,345.724585483823,864.0120592548278,-618.3058254490235,-974.3592712786592
1788030591.242909,-124.0,-293.0,3891.0,-50.94242146000015,-56.72507315999999,-87.32037860000025,346.4742909807867,859.9630566860551,-583.5221523732782,-1040.2207755576753
1788030591.310409,490.0,-1771.0,3843.0,-51.036638100000154,-56.65202843999998,-86.04305318000026,347.9742909807867,795.3109655441107,-439.7360486788755,-895.4776258171045
1788030591.4074924,-124.0,-763.0,3594.0,-48.912391850000155,-56.843987269999985,-87.09250074000026,349.4742909807867,824.7192206176612,-504.89259424094826,-873.6734863573133
1788030591.4715712,-340.0,469.0,4070.0,-47.37083540000016,-56.302354219999984,-87.60353329000026,348.4192557597462,831.4400528210034,-546.9702124518277,-898.3153344846714
1788030591.5417557,-229.0,278.0,4521.0,-47.05424073000016,-56.19124062999998,-87.88406116000026,347.9436861756237,870.654628537082,-514.2897918183759,-932.774267159673
1788030591.6039207,-113.0,-161.0,4038.0,-47.45591683000016,-56.14414756999998,-87.67075730000026,348.1926532091893,839.8825203911456,-544.1924418354952,-862.2774752152412
1788030591.6718216,-52.0,-157.0,4018.0,-47.613763190000164,-56.21612828999998,-87.86459066000027,349.4346563387839,851.5867319968725,-496.80765448803595,-936.4417436276975
1788030591.7419107,-303.0,68.0,4098.0,-47.854764160000165,-55.803524699999976,-87.90061469000028,349.125696237854,844.8692557573063,-554.8898005707542,-922.7371501764347
1788030591.8232985,-164.0,-22.0,4198.0,-48.37847665000016,-55.77581043999998,-87.97542908000028,348.91304245146887,873.163648816826,-562.9210433780372,-926.9791948786499
1788030591.899505,-522.0,484.0,3955.0,-48.62506628000016,-56.16087623999998,-87.56264727000028,347.8063945164995,854.3297493702854,-579.6413166805851,-1019.8491585028794
1788030591.9653256,-237.0,-353.0,4054.0,-49.486923920000166,-55.773063919999984,-87.60123981000028,348.53345273357115,802.7155012242335,-534.8737693584193,-985.423325682475
1788030592.0279114,-42.0,-188.0,4509.0,-50.12994672000016,-55.60122161999998,-87.71487746000028,348.512230832772,811.3473793528676,-546.5204404141369,-953.8279380516592
1788030592.0927916,75.0,31.0,3851.0,-51.56918312000016,-55.06047483999998,-88.18622869000028,347.7123667829159,870.9945353086745,-595.4603258175182,-979.5288911986584
1788030592.1606057,42.0,-434.0,4530.0,-52.44463952000016,-55.18954853999998,-87.80181354000028,348.25188280217884,846.3170717048681,-565.1397873802543,-1027.7583959179838
1788030592.2111278,239.0,145.0,4489.0,-53.822713910000154,-54.865773549999986,-87.38882831000028,347.34381275999164,876.8168845504107,-592.421102979473,-1067.5643939377617
1788030592.2735264,-120.0,-52.0,4428.0,-54.813117590000154,-54.99616282999999,-86.93385295000027,347.1752379770968,860.6990273877188,-604.3971144065965,-1020.8860318938008
1788030592.3409712,43.0,-56.0,4690.0,-57.40867482000015,-55.61931094999999,-87.13358458000027,347.38694824213144,865.5279160880908,-572.9583097079708,-1057.9835723499646
1788030592.407814,-3515.0,462.0,3954.0,-59.130198050000146,-56.42773947999999,-86.15693401000027,348.5681630778563,831.7272085486655,-492.8883445662331,-831.2484310359059
1788030592.4776287,-1081.0,-1616.0,3611.0,-58.225333460000144,-56.591002509999996,-85.99920532000027,349.3181630778563,896.3609019532342,-451.5059524819502,-890.0395417483916
1788030592.544796,-1669.0,-1298.0,4071.0,-55.77063674000015,-55.912235259999996,-86.07114754000027,350.8181630778563,929.7763459031647,-490.35082755823765,-909.8059981477771
1788030592.6099598,299.0,356.0,4304.0,-53.344550490000145,-55.58506169999999,-86.64229686000027,351.04664210970225,918.1375783088536,-454.25202670430986,-909.4948456057421
1788030592.688137,-863.0,857.0,4236.0,-52.78261604000014,-55.33869634999999,-86.86928516000027,350.9909147949386,899.4458180270935,-472.33441719299924,-873.5762377934362
1788030592.7547653,-339.0,-187.0,4134.0,-54.10014596000014,-55.23903651,-86.90531227000027,352.30875508612377,950.8065046625476,-448.9940598640474,-896.7511473055115
1788030592.8258224,-126.0,-403.0,4107.0,-54.29673431000014,-55.22519226,-86.95238272000027,353.05875508612377,868.5889601521881,-437.5382952473776,-860.3080504832834
1788030592.8993943,-271.0,-91.0,4369.0,-53.922946700000146,-55.32486218,-86.96062823000028,354.39033415984187,897.546524071435,-423.4279231767018,-904.981948017583
1788030592.9644096,-623.0,98.0,4199.0,-53.39973800000014,-55.85089265,-86.76128867000028,354.84956152489207,837.5531340580463,-427.0343391701225,-896.124166129485
1788030593.0174983,-603.0,68.0,4142.0,-53.42190952000014,-55.751120809999996,-86.84443187000028,355.3019366489715,832.7829166595611,-389.9665294489874,-885.2445929304348
1788030593.0997455,-491.0,-46.0,4019.0,-53.20333004000015,-55.90068659,-86.75868810000028,355.92262385254605,837.1924743655318,-433.63663467602,-858.594565506191
1788030593.1706922,-850.0,39.0,4140.0,-52.98026825000015,-56.08886157,-86.72778786000028,356.06236745360883,848.627548717242,-442.57594101557305,-885.6357772743817
1788030593.2420611,-167.0,-100.0,3838.0,-53.294104850000146,-56.19349141,-86.59832405000027,356.61654034774614,834.6936323478346,-386.8887627968018,-979.4559501963975
1788030593.3028774,-832.0,-162.0,3944.0,-53.006421090000146,-55.9749624,-86.56512977000027,357.1637648623045,794.1258662024945,-390.3704396981992,-872.1258383905224
1788030593.3675249,-1123.0,-174.0,3747.0,-52.51646330000015,-55.50990746,-86.79209273000028,358.3702722912568,836.3615095130423,-410.36592936246734,-909.0006566050828
1788030593.4313285,-1056.0,278.0,3741.0,-52.737672330000144,-55.38718059,-87.21640466000028,357.13016503116194,829.2417194104603,-466.27698290671105,-905.340901085982
1788030593.5152848,-858.0,-134.0,5576.0,-52.70960513000015,-56.79475459,-85.40939001000028,356.39651392564264,948.6362522391452,-519.9122549952698,-937.0682123131159
1788030593.5826716,1443.0,-726.0,4531.0,-53.28594817000015,-55.96903235,-82.84355513000028,355.9344317156879,922.0797797905926,-498.16671449693666,-957.7119996470286
1788030593.650057,-2164.0,277.0,3422.0,-54.31064863000015,-55.00758011,-78.80793508000028,356.58827864463916,765.7115336649158,-491.46634007960364,-910.6979197147455
1788030593.7412388,-2182.0,345.0,3409.0,-54.94487782000015,-54.744075259999995,-78.47165697000027,355.6880364985908,709.317071204663,-489.6542371102044,-923.0986830115166
1788030593.8127441,-1939.0,2266.0,4974.0,-57.11761937000015,-53.91950214,-78.13668478000027,354.28546162452784,741.5382553397966,-435.2469360222376,-963.7645114487212
1788030593.867027,-524.0,-218.0,3776.0,-58.934552110000155,-52.73695427,-77.33344010000026,355.4034626336909,738.241013704573,-417.0388653331827,-928.129958465804
1788030593.9505637,-1178.0,846.0,3430.0,-60.490808910000155,-52.76800977,-79.22866490000025,354.2143927128155,782.4192006733062,-443.078094443404,-978.7569332656967
1788030594.000565,525.0,-392.0,4793.0,-61.472196030000156,-53.17553493,-80.62866630000025,354.49487994036366,856.2810576668535,-427.53235086426986,-934.6111208323969
1788030594.055966,196.0,67.0,4005.0,-62.08996178000015,-53.178305179999995,-81.47359255000025,354.07306321240594,913.2617537051605,-455.7470021826585,-966.7507766881401
1788030594.1255448,-760.0,-204.0,4338.0,-63.99610700000015,-53.311223,-81.46515258000025,355.57306321240594,956.6998437257282,-420.47491786049375,-950.3211951177153
1788030594.1908073,-1314.0,706.0,3891.0,-66.01174468000015,-53.251218439999995,-81.80519242000025,355.8800239083208,969.9869240683181,-446.1453912618572,-958.1286179163118
1788030594.2620535,-397.0,-863.0,3650.0,-66.05891152000015,-53.12359051999999,-82.50437146000026,356.6300239083208,846.723132550655,-424.8209613405288,-903.9628588988978
1788030594.330645,-3096.0,-890.0,6121.0,-65.44376062000015,-53.36743411999999,-83.25529891000026,357.3800239083208,1034.023209668359,-448.06493688846297,-930.6256685016609
1788030594.384786,-4883.0,4573.0,5273.0,-68.57006394000014,-52.48862989999999,-83.95119047000026,358.7390813562338,1023.4742831876295,-422.1027738750036,-1046.2771886354399
1788030594.4509661,1610.0,8.0,4153.0,-69.49668775000015,-52.98367053,-85.74355461000026,358.27008079519993,1022.3881612925164,-382.3603065250497,-992.7000510610673
1788030594.5013263,-745.0,-77.0,3844.0,-69.68707543000015,-52.917839099999995,-84.82012000000026,359.17045255040847,871.2483667118831,-417.29427278544443,-1013.1767013051484
1788030594.584684,-526.0,-578.0,4530.0,-69.46551136000015,-52.51653827,-84.81486636000025,0.21421245922942944,911.1940000293308,-405.6628732121943,-1011.8585092536882
1788030594.6488965,-1376.0,234.0,2524.0,-69.37128954000015,-52.499910889999995,-84.71510208000025,0.6442831357621486,893.4259155425513,-375.05944367228165,-984.6668947537039
1788030594.7046835,-650.0,81.0,4134.0,-68.93618445000016,-52.092519499999995,-84.82318551000024,0.7407606819794627,934.2683647519368,-373.2573421197505,-1030.8014924065237
1788030594.7982986,-1471.0,-247.0,4162.0,-68.75924951000016,-51.60521205,-84.60440541000024,2.0603188938532018,919.2248503124524,-323.6184898252295,-944.5713446338555
1788030594.8623638,-162.0,-769.0,3806.0,-68.39774683000016,-51.55563721,-84.79547573000023,3.5603188938532018,995.9332081981776,-330.3133101339299,-946.044213057783
1788030594.9282022,-616.0,-361.0,3503.0,-67.78477902000016,-51.50848584,-84.81489100000023,4.310318893853202,959.6277879718409,-323.95507858594334,-984.267925784349
1788030594.9936962,-209.0,-629.0,3598.0,-67.38843986000015,-51.28257316,-84.64633576000024,4.9146602519314895,1067.500494159788,-285.54623407837096,-929.4445595798848
1788030595.0584111,-1026.0,-291.0,3787.0,-66.89221196000014,-51.169435799999995,-84.82288990000025,5.901683043348299,953.8419541186099,-347.8062013410354,-980.982320219861
1788030595.1308656,-404.0,591.0,4743.0,-67.11955040000014,-51.2248842,-84.82566232000025,5.151683043348299,935.6818551572462,-320.5393337544849,-931.8170155000416
1788030595.2000973,236.0,-202.0,2636.0,-67.23320646000013,-51.41526362,-84.66430210000024,4.456737346713043,910.040464580418,-328.58554246968345,-969.587058960691
1788030595.265585,-141.0,-161.0,2548.0,-67.18287604000014,-51.390408719999996,-84.72027039000024,4.709605318114088,935.4766543668686,-310.41425172906287,-1009.5358574594861
1788030595.3299062,-473.0,-472.0,4352.0,-66.64498736000014,-51.28782302,-84.45457377000024,5.954296789733969,865.0390702399162,-324.7078600612552,-974.4219222970996
1788030595.4163737,-435.0,995.0,5209.0,-66.87473044000015,-51.21306848,-84.23841181000024,5.052585950293004,856.314690279425,-354.0402590333225,-943.5204730537458
1788030595.4826062,-349.0,833.0,4143.0,-66.64123564000015,-51.09910077999999,-84.07996891000025,4.302585950293004,907.2616247481809,-361.40006736580074,-996.5261173375758
1788030595.533056,0.0,-8.0,4412.0,-66.84049778000015,-51.03812265999999,-83.73630559000024,3.4268031329207846,867.5726176256261,-323.7711357807346,-963.6115763505682
1788030595.6150365,-403.0,147.0,4082.0,-66.92385308000014,-51.18260517999999,-83.69740645000024,3.1476658689643955,874.6575812338108,-311.92040358483604,-1004.3051336871742
1788030595.682803,-1205.0,62.0,3511.0,-66.43086793000015,-50.98048080999999,-83.83317439000025,2.6403487614734873,851.7347086887322,-339.48416126405107,-954.3616315001485
1788030595.7493906,-746.0,-143.0,3729.0,-66.55556698000015,-51.42385520999999,-84.40124784000025,2.6856052219055506,880.7877783421542,-382.32298572497797,-990.2880703007036
1788030595.8018148,-730.0,-270.0,4425.0,-66.46731994000015,-51.302515529999994,-84.39849012000025,2.9591354783347654,853.0265925463144,-360.6057530592671,-1009.0377249361297
1788030595.8644695,-930.0,2892.0,6700.0,-66.89616479000016,-51.74235716999999,-85.51691540000024,2.8457709342122604,1112.9974798557207,-342.00262010883057,-937.8460460725418
1788030595.9301307,-1124.0,-268.0,2821.0,-67.23139381000016,-51.81438128999999,-84.44774576000025,3.8442431099171963,893.2628421105171,-379.5635222368351,-949.9080078805213
1788030595.998497,-1496.0,306.0,5432.0,-67.30062906000016,-51.73683780999999,-84.69699266000025,3.80714866643113,856.7352151556522,-308.36311959026636,-961.3248868952991
1788030596.071064,-466.0,52.0,4019.0,-67.56362207000016,-51.853252709999985,-85.41690906000025,4.171733686711918,1008.9317959804554,-347.42492788970594,-981.3163905970338
1788030596.1421218,-868.0,-480.0,4551.0,-66.61146611000015,-51.58303450999998,-85.58408866000025,5.649386425948949,865.369778142821,-313.29414617105476,-978.2005268220424
1788030596.2073283,-947.0,700.0,4333.0,-65.79491135000015,-51.50271454999998,-85.46210386000025,4.278364690041683,871.47302198604,-325.70348248040955,-973.8578662003453
1788030596.2803636,-1763.0,-10.0,3660.0,-65.27281789000014,-51.57759725999998,-85.74799163000026,4.299927842472731,869.7662470465085,-373.6609690383647,-936.7798762237144
1788030596.3462079,-340.0,45.0,4090.0,-64.50863461000014,-51.50837775999998,-85.84766771000025,3.549927842472731,891.4837405168913,-390.36020442911683,-907.6933241226786
1788030596.4106867,-113.0,-405.0,3903.0,-64.16511717000014,-51.68271891999998,-85.93897655000025,3.126777960367171,869.5655027396508,-376.61905790903427,-950.4414251932144
1788030596.4802318,-578.0,-144.0,3974.0,-63.59216808000014,-51.84879111999998,-86.09951301000025,3.2667241907738083,881.7493725180993,-352.9033807816547,-1034.4580542858296
1788030596.5345948,-980.0,89.0,3939.0,-63.50639015000014,-52.18360174999998,-85.97222963000026,2.649253115606239,870.4209285382962,-414.50819574535467,-983.9291156387359
1788030596.6047997,-41.0,-214.0,3952.0,-62.44415142000014,-52.83228712999998,-86.44615427000026,1.6599793113831502,891.0568995479099,-437.75708773082425,-922.7534357203489
1788030596.6908278,-1095.0,-34.0,4184.0,-62.14888085000015,-54.22880896999998,-87.18301221000027,0.647472922847133,889.5041421225487,-421.835200883463,-963.0036158498234
1788030596.7552783,-576.0,-388.0,3892.0,-62.32904720000015,-54.533705869999984,-87.28834023000027,0.4901634956559332,897.1541959309001,-473.23066810161885,-888.0538864921824
1788030596.8068542,-659.0,-422.0,3887.0,-62.39547608000015,-55.22394884999998,-87.55447085000029,0.23670821413824397,927.6064071457129,-514.8028397179052,-945.0774344609472
1788030596.8957653,-1096.0,53.0,4081.0,-62.40936548000015,-56.15484692999998,-87.53790647000028,359.326403918891,944.6145715680223,-564.4663279531002,-930.0338997816657
1788030596.9658513,-606.0,-336.0,4159.0,-63.256320680000144,-56.96858523999998,-86.28683735000028,358.06619327231874,913.2535284144299,-555.5690716275808,-911.9286254568625
1788030597.0311747,-1337.0,-737.0,3961.0,-64.41002624000015,-57.15671947999998,-85.85523527000028,358.4954368224658,920.309365482305,-546.9941913271929,-936.1494467019559
1788030597.0991545,-757.0,-920.0,3077.0,-68.00275293000016,-54.82713494999997,-87.01587412000028,359.9697584909055,976.1733716972223,-491.59023131714093,-860.3189564151805
1788030597.1642308,430.0,-762.0,4091.0,-70.43399349000015,-53.11839938999997,-89.43205390000028,1.4274916237360002,1052.3362037997097,-468.94434623001683,-899.4835476854794
1788030597.2349849,-568.0,-1007.0,3294.0,-70.83035946000015,-52.47257231999997,-90.50196484000028,2.1774916237360005,1123.9945390119758,-468.04329580996904,-938.1937284637809
1788030597.322208,3821.0,2312.0,11844.0,-73.51384873000015,-49.92864141999996,-91.51933063000028,1.6896165739325024,1307.5290996588424,-348.7281490745208,-957.7595129151338
1788030597.3961163,1224.0,-1249.0,5879.0,-75.30992329000014,-48.537237979999965,-89.19662927000029,2.4396165739325024,1283.3832477866902,-356.3577633935454,-936.2484116071649
1788030597.4526968,-376.0,1587.0,2114.0,-78.91196831000015,-46.07307627999997,-87.79938923000029,0.9396165739325024,1211.7493847138148,-239.88015479906787,-950.6987425146135
1788030597.539578,2212.0,1272.0,6744.0,-78.68470253000015,-48.427067429999965,-91.55024179000029,359.4396165739325,1259.57560841419,-229.1755964404487,-954.3779298171002
1788030597.6067061,1411.0,-554.0,3065.0,-78.11052823000014,-48.17229934999996,-90.55337907000029,0.9396165739324829,1252.6688261714482,-257.34457319393186,-934.5489884957448
1788030597.672186,646.0,-523.0,4264.0,-78.13824571000015,-47.31921690999996,-89.5678686700003,1.6896165739324829,1264.7243444569433,-209.56138093994562,-948.4548051291503
1788030597.7473714,-863.0,802.0,2771.0,-77.28598255000016,-46.35578898999996,-88.0671444100003,3.188790129240823,1223.6523764618482,-219.8289209928668,-981.690570638327
1788030597.815559,-715.0,-278.0,4504.0,-77.78543073000016,-46.69226127999996,-89.7145147500003,4.669100562674979,1250.8090626998478,-195.18115411677564,-948.7270304279297
1788030597.88332,237.0,-271.0,4844.0,-77.87154158000016,-46.86448297999996,-90.08890975000031,5.419100562674979,1246.7631136221353,-175.02633676888985,-999.8381482188121
1788030597.952649,-708.0,468.0,3914.0,-77.99005445000016,-46.92364774999996,-89.87516482000031,6.708803670488205,1203.3788367697346,-209.77654887252052,-967.8675306325047
1788030598.0178635,-265.0,129.0,4260.0,-77.70478177000015,-46.967058809999955,-89.9278782500003,7.458803670488205,1202.065424330672,-185.04110547100237,-961.6321097251567
1788030598.0864286,-26.0,342.0,4134.0,-78.02751481000016,-47.01644828999996,-89.82707391000031,8.151564212549557,1247.1713253566377,-237.4325960774529,-963.6562897733393
1788030598.152919,-127.0,369.0,4125.0,-77.70519897000015,-47.22298076999996,-89.86149599000031,8.450576477465457,1222.916983503344,-189.3210038479672,-934.4401477935526
1788030598.2075593,-100.0,187.0,4145.0,-77.67120347000015,-47.185894769999955,-89.9109439900003,8.945968231137684,1219.1594224306264,-193.21376980285376,-959.7683870752589
1788030598.2781806,-207.0,251.0,4021.0,-77.55674045000016,-47.145678089999954,-89.8861984300003,9.591206660472443,1177.5358382412408,-163.99589547281028,-914.7936840773722
1788030598.3394077,-325.0,279.0,4394.0,-77.30341129000016,-46.858365749999955,-89.7996957900003,9.850664078191302,1172.4775353104765,-188.41141101464103,-955.384630551727
1788030598.4028306,19.0,430.0,4206.0,-77.15796830000015,-47.037920649999954,-89.8214191000003,9.2424790578238,1194.7038134938903,-225.50390472996227,-952.6231752223631
1788030598.4534683,-70.0,185.0,3923.0,-77.33735940000015,-46.920388549999956,-89.8987428500003,9.28788694532859,1177.3669602998023,-224.7731711473834,-935.2232113446858
1788030598.5204604,125.0,165.0,4277.0,-77.31883110000015,-46.861715599999954,-89.7875730500003,9.266571171658041,1193.7611510251404,-230.65127562875327,-955.2625792492686
1788030598.5845082,-69.0,59.0,4047.0,-76.09285285000016,-46.47255199999995,-89.3799483500003,9.908795451450757,1106.0049247173113,-196.36591839683607,-930.59793198292
1788030598.651173,-599.0,350.0,4035.0,-75.42545605000015,-46.80625039999995,-89.5498873500003,9.837423789480104,1195.3422097415107,-235.21004030079047,-914.2068752044685
1788030598.7204752,70.0,345.0,4139.0,-74.53726084000016,-46.82785729999995,-89.7510488700003,8.527461170306346,1095.8548569583372,-239.01390529131024,-912.2795412688808
1788030598.7934034,350.0,88.0,4093.0,-73.84798568000016,-46.87422109999995,-89.9426859100003,7.957950310200052,1047.2185312595448,-274.2962951800237,-833.4298509470779
1788030598.857548,889.0,139.0,3989.0,-71.87821697000017,-47.12206701999995,-89.58751214000031,6.457950310200052,1089.4473852894957,-290.1557561573394,-968.0724848780327
1788030598.9216526,345.0,54.0,4139.0,-71.11206809000016,-47.437176639999954,-90.07871243000031,6.035646771504029,1059.6247123218386,-299.93406149404154,-942.5714375200032
1788030598.9977157,328.0,1095.0,3642.0,-68.43630920000017,-47.864024739999955,-90.70661726000031,4.535646771504029,1051.2502360486556,-330.4137403913496,-900.7184429994091
1788030599.0671754,647.0,1412.0,4885.0,-67.68443318000017,-48.03420243999996,-90.36316772000032,3.7856467715040294,1125.8055843240652,-318.88230052134816,-867.5340654508522
1788030599.134712,1958.0,922.0,5185.0,-65.89063635000018,-48.727954519999955,-90.10687644000032,2.2856467715040294,1064.1485479472876,-323.95917369098623,-1013.841000956783
1788030599.1962419,-475.0,-1205.0,3242.0,-64.67707491000017,-49.02824905999996,-90.16879284000032,3.0356467715040294,1096.9598609719033,-337.7835494282603,-956.1721577355046
1788030599.2476702,357.0,255.0,5482.0,-62.951247870000174,-49.49218105999996,-91.20490764000033,2.5260392677182337,1072.0375781094122,-345.19658415219664,-955.6270846080122
1788030599.300462,-259.0,-909.0,4094.0,-58.07021115000017,-49.95912970999996,-92.11421625000033,2.5260392677182337,1076.9150148161987,-311.1784685277104,-845.7004945608472
1788030599.3553715,1410.0,214.0,4714.0,-55.81054395000017,-50.30225290999996,-93.35378745000033,1.7760392677182337,1199.1526429845433,-370.1939510420343,-855.615322849333
1788030599.423021,-1046.0,1790.0,5000.0,-54.77537261000016,-50.512322069999954,-93.60097453000033,1.7760392677182337,1075.2237382670414,-430.8874566477786,-964.1369629887377
1788030599.486909,-103.0,413.0,3895.0,-55.63458999000016,-50.564864139999955,-93.70914938000033,1.0528514602004733,1092.3807595970857,-399.12540511314563,-926.1157908374871
1788030599.5559056,152.0,-230.0,3896.0,-55.94078070000016,-50.493747499999955,-93.60089592000033,2.1479669520405684,1086.212473392651,-389.1317439078596,-995.280794992553
1788030599.6221645,297.0,381.0,4419.0,-55.82331510000016,-50.31754909999996,-93.55143672000032,1.3979669520405684,1113.2640256132847,-408.90253477685565,-965.5494687864332
1788030599.6889014,282.0,-8.0,4127.0,-55.415466680000165,-50.274281119999955,-93.56997377000032,0.4530196228972647,1114.1129923683523,-415.3024634232475,-946.3563819242125
1788030599.7576277,171.0,80.0,4208.0,-55.33828818000016,-50.44407381999996,-93.59775803000032,0.3625771842934659,1131.1999536815692,-401.61887367675155,-958.3970484752216
1788030599.8231823,-179.0,246.0,4191.0,-55.26729852000017,-50.425280219999955,-93.50196205000032,1.0412607133919973,1152.4811432370739,-336.29751661989485,-962.9341262720283
1788030599.8901286,-96.0,157.0,4228.0,-55.14070856000017,-50.42836777999995,-93.32597113000031,1.1813679644763648,1148.5764419150323,-373.6039545412868,-956.8874678294588
1788030599.9418435,-659.0,141.0,4049.0,-55.02020090000017,-50.39128849999995,-93.12203509000031,1.5985131109231734,1152.0718475538956,-380.0808531774164,-928.7075680538386
1788030599.992924,-263.0,84.0,4149.0,-55.14375090000017,-50.175075999999954,-92.7452075900003,2.0371807841990353,1144.5431250228278,-350.00964947609856,-942.2695347418942
1788030600.053571,-661.0,280.0,4232.0,-55.323225720000174,-49.639831569999956,-92.26253267000031,3.1381211293457483,1143.0300026368418,-305.3421099106936,-963.6101703479286
1788030600.1217344,51.0,-458.0,3519.0,-55.165703040000174,-49.01591820999995,-92.18222699000032,3.8881211293457483,1145.7427657479288,-297.8334451532013,-987.5789479605303
1788030600.1885202,286.0,701.0,4591.0,-55.03434454000018,-48.09188404999995,-92.11593993000032,3.7499149033446972,1095.936905257704,-291.31531926040185,-951.982873406745
1788030600.253098,-45.0,400.0,3600.0,-54.62281461000018,-48.42296451999995,-91.68893895000032,3.019899765797885,1040.341948312554,-324.99691570920487,-931.2153322395613
1788030600.3199894,470.0,-1116.0,4746.0,-53.32355777000018,-47.60317694999995,-90.49489134000032,4.519899765797885,1016.023037285887,-285.1567711293914,-901.9182435159727
1788030600.389631,-1024.0,626.0,3461.0,-52.040713970000176,-48.06375335999995,-88.61439622000033,3.9844358614396453,962.8799314885382,-267.8317270627922,-912.818574548403
1788030600.462972,58.0,839.0,4206.0,-50.776470430000174,-49.28781311999995,-87.32851526000033,3.2344358614396453,927.7311663619844,-288.99327362222624,-889.6542958699109
1788030600.527008,-1966.0,440.0,3481.0,-47.36521279000017,-50.21878840999995,-87.21073844000033,3.7958198894994806,873.8953449433315,-359.04060695783613,-850.3775429046564
1788030600.5928063,585.0,670.0,8165.0,-42.73434466000017,-51.54553319999996,-90.13674285000032,3.79581988949948,876.116593356747,-422.6890008089084,-891.0073616026041
1788030600.6812403,-777.0,-171.0,2156.0,-41.498039800000164,-52.22262191999996,-91.77874930000033,2.6424950820570428,895.1738768425741,-481.12966661896644,-924.4040419810107
1788030600.7476585,598.0,647.0,6588.0,-41.16753872000017,-51.93100331999996,-92.33699062000032,1.8924950820570428,866.1390070091287,-522.439701713802,-947.0601248128339
1788030600.8137639,2575.0,184.0,5694.0,-42.47649427000017,-51.31421889999996,-92.39513815000032,0.39249508205704275,898.8896407939665,-435.254559571128,-861.1049385077949
1788030600.882514,600.0,261.0,4268.0,-43.725161270000164,-51.52398789999996,-92.20660085000033,358.89249508205705,987.1903035585242,-453.9601240590827,-892.3391407351485
1788030600.9332547,909.0,-284.0,4287.0,-43.55268099000016,-51.68255847999996,-92.07028579000033,358.14249508205705,944.9263589569671,-445.3277565701388,-856.2698464359136
1788030601.001877,111.0,151.0,4179.0,-43.04172677000016,-51.45754564999996,-92.08961860000032,357.898700472706,945.4805170589681,-444.8885734295944,-897.4060397535708
1788030601.1048636,-131.0,-68.0,4101.0,-43.364282500000165,-51.629925759999956,-92.18415472000032,357.43616738485713,954.2272508502399,-427.2572963436427,-897.1450764751297
1788030601.1688771,-166.0,121.0,4135.0,-43.300504310000164,-51.59522038999996,-92.13621340000033,357.51088779588315,934.013262675888,-424.5962632576925,-868.6424783820007
1788030601.2325144,1073.0,-235.0,4200.0,-43.08445799000017,-51.53507064999996,-92.16365060000032,356.1196374119642,898.8874125522065,-428.7129741230823,-893.1335850027671
1788030601.2942965,-102.0,94.0,4137.0,-42.96277643000017,-51.66228318999996,-92.10834080000032,356.0037778137869,887.3516057000758,-409.4647132503647,-863.4430796001681
1788030601.3577104,90.0,67.0,4211.0,-42.546524720000164,-52.04244219999996,-92.11661900000033,355.11408004066,904.5058760117755,-448.60471455361073,-865.85993510128
1788030601.420978,-43.0,548.0,3950.0,-42.41852650000016,-52.04800733999996,-92.30583376000033,354.36408004066,876.528381358894,-422.28047755940617,-831.665735511607
1788030601.505545,203.0,-10.0,4245.0,-41.75037664000017,-51.90684029999996,-92.22287816000032,354.83551915804446,807.682138765676,-427.5275025868939,-868.8805324821259
1788030601.5686176,-95.0,13.0,4327.0,-41.05709664000017,-51.82087357999996,-91.83186824000032,354.6567984310114,887.8302295128632,-456.02400850500067,-859.3809327364446
1788030601.6336935,-119.0,17.0,4324.0,-40.849058880000165,-52.05661971999996,-91.98995708000032,353.21274121059383,843.4269140821307,-515.7197971542107,-912.976083318526
1788030601.7103918,608.0,-1033.0,2454.0,-39.223068920000166,-52.18139247999996,-92.39256502000033,354.3123751069032,887.7420630381413,-506.46197461748346,-879.9116434335111
1788030601.7737393,-478.0,-451.0,3914.0,-38.23992242000017,-52.38690897999996,-92.37867877000033,354.39609311398874,801.4136866107451,-529.5890232741551,-899.5443463527978
1788030601.8378375,566.0,326.0,5528.0,-36.11699700000017,-51.03817501999996,-91.49604345000033,354.39609311398874,716.8193520539558,-516.2856482321035,-941.5350077895073
1788030601.9233549,-440.0,259.0,6356.0,-35.01386980000017,-49.63496026999996,-88.78165800000033,352.89609311398874,691.7917372567001,-467.09760447820406,-916.8526312705853
1788030601.9887345,256.0,611.0,4732.0,-31.175275670000172,-50.05683430999996,-91.56320796000033,352.89609311398874,812.4918204884095,-515.52479561012,-951.4414925991358
1788030602.0530415,-961.0,1162.0,5921.0,-30.65872019000017,-49.78744784999996,-90.60785804000032,352.2389822688394,828.4524087284719,-451.7796656375304,-908.1725536294178
1788030602.1342523,-1179.0,-518.0,2315.0,-32.52717755000017,-49.598847479999954,-90.85257356000032,352.7868228733987,736.2409376597518,-441.122827615249,-900.3924659357621
1788030602.1985745,-1880.0,1157.0,4209.0,-33.50284007000017,-50.457469859999954,-92.06446900000032,353.281196847923,819.8389011349411,-444.60671811744055,-907.7595314512121
1788030602.264194,-33.0,-801.0,4088.0,-33.63351124000017,-49.959582329999954,-91.72789318000032,354.781196847923,789.7520536023036,-427.2356472827432,-908.0717176312846
1788030602.3564336,-25.0,496.0,4120.0,-32.896258500000165,-50.11538223999996,-91.68901091000032,353.281196847923,807.0387248624443,-433.4841537001341,-892.5363276689114
1788030602.4289896,-120.0,164.0,4021.0,-33.418827610000164,-50.05978739999996,-91.85300166000033,352.0644754329246,851.4206050737783,-486.68287732473016,-916.4332432426486
1788030602.4922714,327.0,-87.0,4195.0,-33.388231660000166,-50.12932364999996,-91.83353151000033,351.650831556141,831.2268470437639,-473.692653019665,-887.1150028912188
1788030602.5595055,23.0,-66.0,4203.0,-34.10590190000017,-50.26013719999997,-91.61938114000031,352.546358106291,850.8232468579926,-446.6854042040905,-886.6330922352925
1788030602.62553,-195.0,12.0,4194.0,-33.94507564000017,-50.124299609999966,-91.33090414000031,352.92132811182927,860.6200437726473,-434.7274646280711,-935.6990434091399
1788030602.6958113,-111.0,126.0,4269.0,-34.31947582000017,-49.888385609999965,-91.03962238000031,352.94124676864317,849.8421928204352,-426.71078747199897,-918.7327958665642
1788030602.7583244,-111.0,-49.0,4131.0,-34.27505214000017,-49.61906704999996,-90.78418622000031,353.276298895627,892.074326023148,-445.3346513313827,-889.858326516727
1788030602.8237343,1063.0,-402.0,5200.0,-35.23750545000017,-48.78684712999996,-89.6940625700003,353.1702583628932,896.065163495551,-452.0682980723854,-934.7724381529091
1788030602.8928,16.0,341.0,4176.0,-35.465171070000174,-48.82294045999996,-89.68850975000029,352.5348978778038,819.1956963423431,-419.5859139163108,-928.0515741750415
1788030602.9726408,-485.0,276.0,4375.0,-35.96449269000017,-49.52476689999996,-91.7993488300003,352.9987767207889,918.8412094572558,-411.452029388121,-948.2954139212246
1788030603.0409632,-409.0,579.0,4223.0,-35.95340077000017,-49.90189217999996,-92.4177233700003,352.9428620777795,969.761141072145,-444.1180027213403,-954.4815518500476
1788030603.1213753,-48.0,-96.0,3640.0,-35.80010525000017,-50.42136973999996,-92.8200699300003,354.1695500245967,914.5688116559617,-433.504508737063,-918.623544056268
1788030603.1861115,-972.0,-243.0,3581.0,-35.65659188000017,-50.78499145999996,-93.0472199300003,355.13559428991675,935.1962383310612,-451.9315591331381,-922.3410360720767
1788030603.2514298,121.0,-1005.0,3225.0,-36.839841920000175,-49.57679166999996,-93.4810529100003,355.6194637231466,949.9518379533927,-483.37860067049024,-969.4507720767504
1788030603.3190308,603.0,-1033.0,3201.0,-37.746903950000174,-48.328541169999966,-93.4838268000003,356.3694637231466,936.0209916461132,-461.43328064815694,-903.1175941809302
1788030603.405777,834.0,-1079.0,4180.0,-38.131116170000176,-46.85405752999996,-90.9781801600003,356.3694637231466,807.3116363015046,-415.36491367797964,-943.8691340633598
1788030603.4743047,-244.0,109.0,2413.0,-34.44074858000018,-47.73987371999996,-91.15040571000031,356.73209805898773,779.000380254658,-385.8255348461162,-920.6467164368775
1788030603.5385904,936.0,-4519.0,639.0,-30.52355320000018,-49.937556759999964,-93.89210215000031,356.73209805898773,791.8914132382442,-490.90458268188235,-849.1405426086318
1788030603.5982003,821.0,3028.0,8012.0,-28.432692400000178,-53.37691155999996,-94.25355415000031,355.98209805898773,786.3041504166857,-573.0667142926025,-806.0462492183572
1788030603.6623013,449.0,-1675.0,1007.0,-28.04162172000018,-52.18195527999996,-93.47422385000031,355.98209805898773,676.2184760726286,-515.8157786785235,-816.8861626048928
1788030603.713519,858.0,431.0,3231.0,-28.23929276000018,-51.697043509999965,-94.35138909000031,355.23209805898773,729.02957552993,-530.6114938099063,-849.832257317852
1788030603.7827277,2372.0,-272.0,3677.0,-27.751611510000178,-51.85856850999996,-93.2766265900003,354.48209805898773,633.3478970335536,-570.7851900798402,-827.6830228528441
1788030603.844609,-770.0,-585.0,3547.0,-27.636024990000177,-51.53237970999996,-92.8226914300003,353.8635714681258,703.7420719360874,-547.0323808008336,-877.4967527884878
1788030603.908277,-146.0,725.0,3580.0,-28.071686790000175,-52.07000490999996,-93.21818583000031,353.1135714681258,684.3639067479446,-499.6573108272091,-873.2062300103125
1788030603.9826863,-1445.0,12.0,4398.0,-28.559776070000172,-52.28635950999996,-94.13281479000031,352.26492173985577,735.753774890283,-540.8517847770901,-854.6780902626422
1788030604.0564187,215.0,-734.0,4371.0,-27.51550585000017,-52.827636539999965,-94.86295203000032,351.93048260579945,753.351749158291,-554.1030388032092,-861.015207090351
1788030604.1249955,814.0,-1846.0,3790.0,-26.93134661000017,-53.07000047999996,-94.45901213000032,352.68048260579945,783.7633571336046,-583.1246398091457,-834.124736828752
1788030604.1910088,516.0,164.0,4272.0,-27.04166815000017,-53.30324901999997,-94.65258831000033,351.18048260579945,720.0235306852305,-604.2187465291033,-835.8549260772019
1788030604.2586389,840.0,165.0,4159.0,-27.187184850000172,-53.26919191999997,-94.72689471000032,350.43048260579945,720.0532349686995,-591.3099395220115,-785.7424956600657
1788030604.3236468,429.0,-517.0,4207.0,-27.549272940000172,-53.56938460999997,-94.42051248000033,349.76465701024745,748.0691707791301,-559.4567533155703,-846.9703047651532
1788030604.393282,-10.0,-115.0,4274.0,-28.102720730000172,-53.69623069999997,-94.03710596000033,348.624423273315,753.5679150645087,-525.501090083123,-828.4137585684849
1788030604.4706151,-133.0,-327.0,4105.0,-27.27092893000017,-54.01472005999997,-93.85466216000033,348.0806471534418,666.7982720331981,-550.0810161505974,-808.7338012032462
1788030604.5337415,-696.0,-55.0,4202.0,-27.31109052000017,-54.27092614999997,-93.48714459000033,348.08233092390896,683.6163547917741,-478.44465394521546,-826.7815677668143
1788030604.599668,-628.0,-44.0,4174.0,-27.41301927000017,-54.008382399999974,-93.14120459000033,348.0101395598252,681.8952971681338,-513.667087660846,-820.8761086549536
1788030604.6788595,-90.0,-502.0,4231.0,-26.828292470000168,-53.54407463999998,-92.25382831000033,348.92021961031435,652.6269914131111,-492.02875454263386,-833.147502151625
1788030604.7439218,315.0,-229.0,4686.0,-26.843738320000167,-53.35254609999998,-91.03669533000033,348.17021961031435,635.0626001689326,-488.5848195170959,-779.2258284254848
1788030604.8129625,-1215.0,-605.0,3065.0,-26.855876530000167,-54.156526549999974,-88.84385062000032,348.13988740948895,564.6844630044252,-525.7584945408695,-731.1142114072699
1788030604.8935578,-1111.0,543.0,3131.0,-26.549633320000165,-53.55286985999997,-91.35712957000032,348.13988740948895,610.0024255145468,-538.6963632653523,-846.7757862075397
1788030604.9605575,-1622.0,86.0,2183.0,-26.515568520000166,-53.43519145999997,-95.28077517000033,348.88988740948895,703.0647229475683,-540.9502151792827,-866.5555545896954
1788030605.0241575,4651.0,-277.0,9136.0,-27.155606310000167,-52.53233621999997,-92.72989992000032,348.13988740948895,703.2622158459669,-422.34363435783064,-840.2748747126219
1788030605.1013129,-1070.0,2007.0,806.0,-27.310239040000166,-55.59585275999997,-87.83882317000032,346.7420183211289,575.4817572471816,-564.0563909037777,-817.2137356631499
1788030605.1644945,-2485.0,-2147.0,2111.0,-25.219221370000167,-55.66456454999997,-85.38530567000032,346.7420183211289,470.56675455539107,-560.8472723040512,-797.6956167658531
1788030605.2299454,-902.0,-799.0,3655.0,-24.454138870000165,-54.998602049999974,-85.19016317000032,347.3916363677573,493.7652399691324,-527.5616325963312,-802.0399885751841
1788030605.3079185,-285.0,-116.0,3540.0,-22.507092230000165,-55.902407609999976,-87.78721245000031,345.8916363677573,495.0015172091229,-499.8216030018743,-785.0144584072552
1788030605.3717947,-1044.0,-1189.0,2495.0,-21.641752230000165,-54.67238860999998,-90.77572595000031,346.6416363677573,533.5991814857214,-261.24112369226003,-836.8915340641132
1788030605.4411645,120.0,5667.0,5547.0,-18.472870220000164,-56.34369418999998,-95.2638883700003,346.6416363677573,602.6145213246472,-760.0384169993449,-840.6407514467189
1788030605.5256102,-1165.0,-452.0,5744.0,-20.781867680000165,-54.96162580999998,-95.13993405000029,348.1056326239124,657.1759702831923,-505.55061649358004,-920.043804392691
1788030605.5904632,1667.0,281.0,3620.0,-22.232480480000167,-55.23129100999998,-94.58510565000029,347.3556326239124,694.7227899604478,-453.0173041058564,-877.8731900978268
1788030605.6618955,931.0,-55.0,4704.0,-22.687415100000166,-52.30817640999997,-90.55751383000029,347.3556326239124,634.3331380995892,-415.89965584217794,-907.7352585168819
1788030605.7252862,-3117.0,1355.0,3835.0,-22.736932540000165,-51.921321409999976,-89.65072571000029,348.1056326239124,591.3890385245938,-404.2764923952187,-959.3385790224759
1788030605.794514,3058.0,1340.0,5394.0,-22.275725570000166,-54.86856290999998,-92.08665480000029,346.6056326239124,639.976271615948,-419.43237348110426,-960.9916376968522
1788030605.8624728,800.0,-419.0,4289.0,-22.077893250000166,-55.39096387999998,-91.76517728000029,345.8556326239124,636.5669141431962,-491.59728963313285,-884.3179025678608
1788030605.9431524,-1833.0,128.0,6090.0,-22.789608870000166,-55.34458474999998,-89.25565635000028,347.03903205097424,616.7368692967566,-486.6336255500294,-877.7788763515915
1788030606.0078948,-2261.0,1369.0,2702.0,-23.568672540000165,-54.719885359999985,-86.77333539000028,347.23975778247757,511.6823243144708,-509.9484754149958,-891.799268350165
1788030606.0726788,-3338.0,477.0,3040.0,-23.441918990000165,-56.42951250999999,-88.69318794000029,347.98975778247757,799.6920128484383,-525.7467313956022,-872.9968747711422
1788030606.1566072,2106.0,-1021.0,4555.0,-24.120978070000163,-58.94880522999999,-91.96548550000028,346.48975778247757,710.4469709567202,-560.200405609761,-898.7546117669391
1788030606.2235103,1085.0,-696.0,3457.0,-24.458445340000164,-58.97666949999999,-92.77045330000028,345.73975778247757,740.9592068771373,-615.019688806047,-876.1953113712264
1788030606.3005395,1238.0,-1028.0,3480.0,-25.498368420000165,-58.45686042,-90.6226477100003,345.0342369200891,709.3531849429681,-591.5340501245694,-869.1731207823422
1788030606.3570905,-916.0,404.0,2423.0,-26.391862630000166,-57.98006599,-91.0387552900003,344.3331374978016,660.7611433066363,-561.0635004083823,-849.3958048139008
1788030606.4208875,-179.0,1516.0,4419.0,-27.191360770000166,-58.38911155,-92.9352392500003,343.5831374978016,691.8129521722296,-517.177639056061,-873.4575874363863
1788030606.4721386,367.0,-906.0,6426.0,-28.461901510000168,-59.74620981,-94.17486659000029,344.3331374978016,821.7582545198107,-562.8591569347577,-966.1291104101643
1788030606.538812,-272.0,-1799.0,2092.0,-28.650266330000168,-60.75380269000001,-91.5100564700003,344.3331374978016,836.1952172526542,-631.0263822251679,-864.9133931903949
1788030606.6082602,383.0,-1278.0,3282.0,-28.97210057000017,-59.62738285000001,-89.6595095900003,345.0831374978016,816.8378983475158,-612.3868466266119,-880.4492406237133
1788030606.6740022,-392.0,769.0,-445.0,-29.31819492000017,-61.624347960000016,-89.9835680100003,345.067103584185,694.3794936453747,-667.6782804249959,-912.3811209587358
1788030606.744712,48.0,3279.0,8737.0,-30.07240131000017,-63.04275257000002,-91.1722966000003,344.317103584185,749.7737228547344,-656.0677753154408,-801.4072467657171
1788030606.803398,-910.0,-2302.0,-598.0,-34.005376230000174,-61.82773639000002,-91.1067994200003,345.76889124775676,852.0978548848133,-659.3638646093377,-814.3866232018801
1788030606.871953,933.0,241.0,5535.0,-37.44089188000017,-62.23665259000002,-91.8378920200003,345.01889124775676,904.2440780172122,-612.3159708847086,-830.5201304203366
1788030606.9412956,-5156.0,1312.0,5710.0,-43.92893771000018,-59.79993656000002,-94.2088461300003,346.51889124775676,961.5043152532842,-574.2254553507366,-876.0824385368705
1788030607.0109124,-2360.0,-1308.0,4593.0,-45.14339417000018,-59.80302678000002,-94.75272485000029,347.26889124775676,1050.303579090993,-460.33080447694573,-933.2451195977512
1788030607.079903,304.0,1434.0,5263.0,-44.75466149000018,-59.95158120000002,-92.7930653300003,347.26889124775676,1079.543060778422,-570.7758980564067,-930.1886311737958
1788030607.1522896,-344.0,-558.0,4580.0,-46.16957730000018,-57.64285877000002,-91.5487921600003,348.76889124775676,1029.610548882586,-473.06538676509933,-915.5321732942581
1788030607.2225497,-1582.0,675.0,4774.0,-47.55713235000018,-56.95373747000002,-93.2653871100003,349.51889124775676,1041.3778386849776,-453.5565667254991,-895.363206854103
1788030607.2871556,438.0,-333.0,4279.0,-48.99588995000018,-56.28138642000002,-93.9329662600003,349.51889124775676,1135.7437719452148,-397.5945692631863,-944.9875431382131
1788030607.3530324,60.0,-128.0,4286.0,-48.87798811000018,-55.44676550000002,-92.9432113400003,350.26889124775676,1050.807043675697,-410.85594091984495,-919.1220703740851
1788030607.4294703,1379.0,-1626.0,5133.0,-48.219435530000176,-54.11104888000002,-91.7311994200003,351.76889124775676,971.0394907039042,-363.19645054251566,-883.1540782007502
1788030607.498302,-108.0,1472.0,3912.0,-49.34150858000017,-54.99545877000002,-86.97678360000029,350.4644746672793,949.8554685744099,-369.6444531533092,-873.6927918252128
1788030607.5593338,-108.0,1472.0,3912.0,-49.34150858000017,-54.99545877000002,-86.97678360000029,350.4644746672793,949.8554685744099,-369.6444531533092,-873.6927918252128
1788030607.6467907,-3493.0,-2728.0,2710.0,-46.11439140000017,-58.815246770000016,-81.95671344000029,350.9716423723369,684.9863148462805,-412.6431698217421,-889.5817261947698
1788030607.7139971,-1003.0,-1735.0,2136.0,-44.18221640000017,-59.408810930000016,-81.85160312000029,351.7216423723369,674.7933110507305,-451.6877283150057,-821.0598399768169
1788030607.7815595,-1630.0,1346.0,3001.0,-40.69534952000017,-59.931231990000015,-84.83471941000029,351.8342404387185,648.3165157089604,-442.49306328913866,-827.8903031966003
1788030607.9089324,-349.0,2076.0,3962.0,-32.418955520000175,-59.45725030000002,-91.54345921000028,351.0842404387185,727.98515739406,-416.34300367279593,-805.1745903078039
1788030607.972347,1103.0,-1709.0,2644.0,-30.188027940000175,-58.979416020000016,-90.68087525000028,351.8342404387185,733.1815222698157,-563.1327043982831,-899.9943645079742
1788030608.0604525,2520.0,257.0,2566.0,-30.105128900000174,-58.817140760000015,-90.83083597000028,351.8342404387185,668.8793070508771,-533.3779696978356,-920.4359036785283
1788030608.1239061,1066.0,-72.0,4292.0,-31.208530150000172,-58.84996250000002,-90.80085644000027,350.3342404387185,726.3164437863173,-516.77565836461,-889.0848937509434
1788030608.1769798,546.0,-280.0,3974.0,-31.497735430000173,-58.89167480000002,-90.59507576000027,349.5842404387185,763.5065209069257,-542.2584481962215,-899.1397313299335
1788030608.2410347,32.0,-80.0,4338.0,-31.175010510000174,-58.95287272000002,-90.68680082000027,348.5422127289919,773.5036055116634,-540.5996496725076,-854.0444594817494
1788030608.3000798,-891.0,-102.0,4003.0,-31.225110630000174,-59.069773000000026,-90.79256774000027,349.0509666240955,746.2810132676406,-510.8781406670889,-847.3249042402333
1788030608.3614337,-388.0,77.0,4086.0,-31.164525210000175,-58.95584023000003,-90.77597480000026,348.9692437894954,740.3954812739229,-501.53012385446016,-855.3045125852193
1788030608.4255278,-47.0,-169.0,4146.0,-31.383424240000174,-59.03346659000003,-90.76488512000024,347.6605827003585,709.3646232466507,-558.6627919246649,-849.3872239427495
1788030608.4826653,-237.0,66.0,4130.0,-31.261351520000176,-59.25264261000003,-90.75378760000024,347.22979372677247,749.31832771077,-545.997461395206,-848.0791502342646
1788030608.552943,76.0,-127.0,4176.0,-31.494164240000178,-59.15563731000003,-90.78427498000023,346.1219732968783,722.482523175086,-559.5796324348632,-851.9365328444306
1788030608.605515,-89.0,-137.0,4085.0,-31.136278250000178,-59.21112351000003,-90.86195566000023,346.1750329861593,713.0427163232193,-511.2416951829425,-834.5085563122163
1788030608.6983786,-467.0,72.0,4149.0,-31.61870838000018,-58.98654622000003,-90.81482200000023,346.2547050863861,700.7328496733334,-531.5273932117624,-879.3007353420871
1788030608.763749,61.0,-108.0,4173.0,-31.419057320000178,-59.04478517000003,-90.90079677000023,345.78338718752815,723.708501026645,-526.3319483485697,-866.9295308284984
1788030608.8338857,-34.0,-138.0,4119.0,-31.746657180000177,-58.975378420000034,-90.88691542000022,345.7863181390507,744.0868610701737,-538.4319456953835,-882.5659855244776
1788030608.910212,-164.0,85.0,4120.0,-31.668692580000176,-59.03927071000004,-90.95631769000023,345.82192167068456,722.5055427332752,-527.0460690836342,-897.9100419122109
1788030608.9832022,32.0,-132.0,4184.0,-31.818762360000175,-59.04482885000004,-90.89795722000024,345.67647479689253,750.9271099749905,-548.8260590035003,-872.8030887827879
1788030609.0478516,-230.0,-79.0,4132.0,-32.12692147000018,-58.89221261000004,-90.91460329000023,345.7868661578176,755.5433594480473,-566.4738312984235,-862.8484009955132
1788030609.1167696,-323.0,58.0,4191.0,-32.03052573000018,-59.082968910000034,-90.93161679000023,345.8116938169915,745.9139329270548,-534.6889076888225,-844.3417052876407
1788030609.186549,12.0,-104.0,4171.0,-32.190297300000175,-59.31462082000004,-90.81499917000023,345.26109481628504,739.8508357065605,-548.0873719127926,-852.0987100871705
1788030609.2502098,-8.0,-161.0,4109.0,-32.14322447000018,-59.17894031000004,-90.85930301000023,345.40371440264136,717.1214066043933,-514.0035587830172,-863.9375859457664
1788030609.3339214,-398.0,71.0,4143.0,-32.054375150000176,-59.214782690000035,-90.88971437000022,346.12830723374657,735.7327690853872,-459.79429488486323,-894.7093816338851
1788030609.398323,-234.0,-31.0,4114.0,-32.176629520000176,-59.195303300000035,-90.83139520000022,347.3758383870091,750.7860713299535,-460.38734841985263,-926.5971125532838
1788030609.4644985,-392.0,-145.0,4188.0,-31.873669310000174,-59.07318424000004,-90.8258465100002,348.49762723862807,791.0430076552688,-455.7586964553306,-947.1514272919056
1788030609.5507462,-716.0,67.0,4030.0,-32.00989400000017,-58.86748903000004,-90.50058990000021,349.87920741321983,796.2592618071388,-457.9906166901996,-928.2407390911026
1788030609.6167173,-488.0,50.0,4194.0,-31.94316608000017,-58.90919398000004,-90.23645855000021,350.12595994810397,772.2084040858123,-468.01597428945854,-875.6582903481165
1788030609.6688232,-716.0,-320.0,3842.0,-31.90422144000017,-58.82037707000004,-90.01693204000021,351.59775441729727,746.3759524518913,-445.4632007729799,-874.4293421564745
1788030609.7658467,-475.0,-251.0,4963.0,-30.81745072000017,-58.05247315000004,-90.42720428000021,352.3826473704929,683.3402303397618,-429.6130827223522,-850.0568094432363
1788030609.8384008,73.0,14.0,4218.0,-31.05318377000017,-58.00532654000004,-89.96128484000022,352.04299994850476,779.5385555852073,-439.77616913514834,-901.9050114858475
1788030609.9032724,186.0,-895.0,4188.0,-29.883258300000172,-57.55860362000004,-91.05923400000022,353.1039594057208,722.8006100857174,-419.60831472467214,-890.7109183891573
1788030609.9645977,102.0,337.0,3331.0,-28.959343140000172,-57.88044794000004,-92.39932716000021,352.3539594057208,746.6256352221287,-490.85497941642456,-883.1523919460988
1788030610.028332,571.0,-605.0,4606.0,-28.354561970000173,-57.86937338000004,-94.28292832000021,352.29118046356984,773.4243466261483,-466.09386357130165,-861.1302786699664
1788030610.0950599,486.0,757.0,4125.0,-28.09339897000017,-58.33908563000004,-94.37134532000022,351.5545847175668,758.9655582169413,-459.89197211472276,-870.4293327831012
1788030610.1475928,-144.0,336.0,3565.0,-27.98685799000017,-58.759642130000046,-94.41059726000022,350.8045847175668,724.818847555008,-430.9755312926035,-889.8037535731337
1788030610.2206144,221.0,-454.0,4121.0,-26.67615573000017,-58.67909229000004,-94.81599778000022,351.28433149618746,768.7421799538332,-526.0739069321618,-862.135140863991
1788030610.2857049,819.0,100.0,4931.0,-27.08741665000017,-58.30117685000004,-95.10777073000021,350.53433149618746,794.2299546666912,-500.83915852496136,-885.7123867010259
1788030610.3501794,185.0,-93.0,4411.0,-26.77582362000017,-58.11202649000004,-94.30480682000022,350.8707036799559,762.5393425254448,-464.9767033979012,-876.0611391636842
1788030610.4062924,-271.0,-85.0,4185.0,-26.086575060000172,-58.03668353000004,-94.27132106000022,350.8243794484627,788.9419899993932,-500.5111595186023,-920.128393590412
1788030610.45745,-336.0,-116.0,4201.0,-24.64984704000017,-57.89918022000004,-93.76216290000022,349.73274252038914,555.3465493926695,-478.93527736755794,-961.1983031300138
1788030610.512395,-369.0,-131.0,3855.0,-24.020106390000173,-57.75196812000004,-93.68310455000022,349.68468557548096,736.7579530413465,-512.8041105007674,-866.8700194676726
1788030610.5998385,-674.0,131.0,4526.0,-23.704609180000173,-56.87669190000005,-93.93850144000022,349.79282830180483,743.9995860045617,-532.7707737247301,-831.4659010184608
1788030610.649894,429.0,351.0,3699.0,-23.311058260000173,-57.159074420000046,-94.68307856000023,348.29282830180483,733.0282366428635,-518.5909842033049,-810.8930607815221
1788030610.713626,879.0,-292.0,5242.0,-22.624724920000173,-56.863381400000044,-94.74547250000023,347.54282830180483,776.368790604895,-520.847754124415,-862.6091018355211
1788030610.7685575,1045.0,329.0,5205.0,-22.415765400000172,-56.933939160000044,-94.31398466000023,346.79282830180483,723.1097398183997,-487.8801600596978,-886.4362863229529
1788030610.8206193,-124.0,-108.0,3442.0,-22.915100180000174,-57.87833597000004,-92.75355327000022,346.5327371808553,715.6427970468537,-471.74188084082186,-853.2900484287297
1788030610.885849,222.0,-191.0,3867.0,-22.885231880000173,-58.20960257000004,-92.88117237000023,347.203194667934,683.1715615089571,-459.4129030825555,-867.1225842475937
1788030610.9391844,-246.0,-556.0,4685.0,-22.382435180000172,-58.26395897000004,-92.71810317000023,347.6470230158361,662.9249750819677,-507.35377679299614,-843.625141476998
1788030610.9913943,-684.0,190.0,4027.0,-22.18984271000017,-58.26395897000004,-92.47125930000023,347.9075655601245,706.9463497448462,-468.3666574347766,-884.8044893157432
1788030611.0496705,-1059.0,-5.0,3465.0,-22.11382831000017,-57.645286090000035,-92.26503146000023,348.65131676654755,659.6110134102415,-500.8465231279408,-874.5555183167792
1788030611.1164477,-672.0,-635.0,3222.0,-20.85570403000017,-57.02750697000003,-94.56381368000024,350.15131676654755,717.9287191889595,-511.63009938503706,-892.3189376390018
1788030611.1852324,201.0,1518.0,5253.0,-19.99696349000017,-57.063173510000034,-95.55424606000024,349.40131676654755,725.0062939489487,-475.69161537658124,-864.7353338925055
1788030611.2468271,1576.0,148.0,5354.0,-19.36376645000017,-56.65770523000003,-94.26285736000024,348.65131676654755,708.8690318912195,-506.08408830263335,-836.1508741136838
1788030611.3138428,-219.0,-10.0,4500.0,-19.138524020000172,-56.48531287000004,-95.04703852000024,348.88993969445175,679.2870903312527,-486.39014978483226,-860.2602835467235
1788030611.3652282,806.0,-44.0,3754.0,-18.081468580000173,-56.88580702000004,-94.17902410000025,347.38993969445175,679.2192585561854,-511.01019702101524,-878.293475754011
1788030611.4522686,-485.0,-534.0,3544.0,-17.259315220000172,-56.41083567000003,-93.23187433000025,348.37167939837514,620.3159353380802,-512.8887980091131,-836.6316497490686
1788030611.520019,1175.0,1551.0,5508.0,-17.02022217000017,-56.35508991000004,-93.29335904000025,346.87167939837514,601.3115186447351,-442.2147148893138,-884.6413507682716
1788030611.5843215,267.0,-481.0,2829.0,-16.90077032000017,-55.94950921000004,-93.65171459000025,347.62167939837514,657.9843833875022,-416.1005636980939,-873.4306084198868
1788030611.671742,-469.0,161.0,4241.0,-15.93322864000017,-55.92729849000004,-93.29839981000025,347.96453882490755,660.3292409087034,-424.3153956825217,-877.1379270730574
1788030611.7404003,-829.0,390.0,3871.0,-16.31433524000017,-56.04969769000004,-93.26501821000025,348.25089104929435,696.241595729454,-437.78737174984815,-948.4289809124764
1788030611.8097577,-399.0,-4.0,3860.0,-16.71109930000017,-55.708345070000036,-92.81852615000024,347.867938038352,670.841695649807,-488.6350152533068,-1141.9967963809552
1788030611.8713744,-561.0,-159.0,4190.0,-17.45111116000017,-55.869096710000036,-92.20877855000023,348.24505184966125,634.9520248968553,-459.5109805691197,-889.0947369956048
1788030611.9234834,-532.0,218.0,4380.0,-17.376291170000172,-57.14254224000004,-91.51512195000024,347.0745849457059,668.7455692697864,-503.6287410525089,-898.7860004339025
1788030611.989559,391.0,-328.0,5286.0,-17.561977650000173,-57.00951312000004,-91.79226595000024,346.4088595170666,685.7248162624201,-525.5906258688444,-863.9059772001518
1788030612.0683825,220.0,-370.0,3798.0,-18.424379400000173,-57.21748767000004,-90.51947170000024,344.9088595170666,603.7982400602735,-546.9555277372028,-851.832905657785
1788030612.1332722,-381.0,84.0,3151.0,-19.795297830000173,-56.36648990000004,-90.30923321000023,344.4515963310414,620.1320540185492,-537.355022904363,-869.2735716428359
1788030612.1995838,433.0,-166.0,4781.0,-19.884104590000174,-56.238803880000034,-90.09822885000023,342.9515963310414,555.6555361745278,-513.9981696540037,-871.378368316844
1788030612.2896087,-889.0,33.0,4352.0,-19.509210490000175,-56.08570002000004,-90.08723024000022,342.72410732934406,548.6902367739585,-511.8856223385347,-880.1434926266776
1788030612.3540766,-455.0,-251.0,3884.0,-19.087440890000174,-56.30213442000004,-90.66993824000022,343.3697470120988,544.4136961550953,-474.3887478198303,-909.4832870572309
1788030612.421328,386.0,411.0,5708.0,-18.837675500000174,-55.87203937000004,-92.67881658000022,343.4060723695727,668.4982192966258,-449.289820199925,-856.352427917828
1788030612.4901836,-540.0,34.0,4141.0,-19.162351670000174,-55.22823705000004,-92.44016572000021,343.4060723695727,655.749980011994,-433.3352958502487,-906.9392217577766
1788030612.5560496,682.0,-326.0,4998.0,-18.834475240000174,-54.95896882000004,-92.31553835000021,344.4099514762367,645.8162872698715,-416.40387871026684,-852.6556300589151
1788030612.6248393,449.0,854.0,4798.0,-18.118221660000174,-54.764719100000036,-92.4599362400002,344.4099514762367,657.5335380891396,-435.6217845540585,-885.0966125256751
1788030612.701652,-202.0,-508.0,3509.0,-18.171035960000175,-55.12619245000004,-91.8761741800002,344.94569741910226,650.458400681544,-447.1243986961902,-877.2878173142431
1788030612.7535117,-110.0,-988.0,3490.0,-18.687344060000175,-54.72091835000004,-92.3897064300002,345.69569741910226,669.6774207667553,-438.4202624105127,-905.841235857721
1788030612.8062546,664.0,74.0,3456.0,-19.751272100000175,-54.15145295000004,-93.3230741100002,344.94569741910226,690.4451104263336,-453.89934227889347,-894.9803532159759
1788030612.8703725,-120.0,481.0,4038.0,-20.838189540000176,-54.49337327000004,-93.6232968300002,344.62761325637354,707.9513531452099,-448.4062534382675,-914.2746785276122
1788030612.9214761,-136.0,-341.0,3443.0,-21.556995880000176,-55.22305117000005,-93.4696946400002,344.62761325637354,710.8641948357462,-482.1741850474506,-847.4459855811385
1788030612.9736514,-1039.0,2.0,3899.0,-21.131755330000175,-55.23416857000005,-93.2862575400002,345.37761325637354,768.1168725084962,-499.67105372105624,-915.3220640559698
1788030613.03931,-783.0,195.0,3908.0,-20.345192280000173,-55.76496534000005,-92.26086471000019,345.4913551175195,681.290571928592,-479.1665409648354,-955.4289398726409
1788030613.1241477,-72.0,-616.0,3495.0,-20.83740624000017,-55.93460194000005,-92.25806933000018,345.4913551175195,690.7472033722784,-500.3149335355719,-904.6101103506785
1788030613.1939564,253.0,928.0,4653.0,-22.209065550000172,-56.14434343000005,-92.77084838000019,345.4913551175195,712.5027197789427,-520.791656354418,-909.2846726909694
1788030613.2620974,-371.0,834.0,4294.0,-22.836660560000173,-56.412936090000045,-93.06211677000019,344.83895097512453,771.802409399835,-544.1483919662343,-910.5447721572806
1788030613.3298945,1173.0,401.0,5491.0,-23.360906660000172,-56.17840494000004,-92.55994419000018,344.08895097512453,740.7801452958188,-522.8034907943055,-896.2282207003956
1788030613.3831246,-666.0,350.0,3598.0,-23.38858634000017,-55.610415840000044,-91.59189627000019,344.95847025190363,739.3527024434187,-535.43326581427,-875.9366354475113
1788030613.4331307,-32.0,327.0,4074.0,-23.41634484000017,-55.405002940000045,-91.91111902000019,344.20847025190363,657.3809069963613,-478.84247065902866,-903.8645002474613
1788030613.4971042,-276.0,562.0,4250.0,-23.29666423000017,-55.30758849000004,-91.99461712000019,343.51605595634913,663.8783935559242,-494.45683046306704,-889.466883350627
1788030613.5538132,-1125.0,722.0,3537.0,-23.35498963000017,-55.80696961000004,-92.23870096000019,344.78038299894024,706.165830903513,-476.41140714638533,-906.606396440471
1788030613.622605,-272.0,-1559.0,3922.0,-23.36053727000017,-55.67382625000004,-92.6464525000002,345.53038299894024,706.6298199707335,-508.00415182448666,-851.5352301575084
1788030613.6874087,889.0,-368.0,3674.0,-24.17923067000017,-55.87370649000004,-92.6936150000002,345.53038299894024,716.557774363261,-517.0223577115385,-872.0981807869445
1788030613.7490253,-73.0,-157.0,3864.0,-24.442880630000168,-55.22981625000004,-91.5474212800002,346.2973768356151,719.1237108909744,-496.4611819489967,-859.646431980836
1788030613.8171024,-762.0,578.0,3726.0,-24.53161060000017,-55.59288287000004,-91.8975404200002,345.68300106498646,699.4798140013331,-522.2705591244539,-875.6640163542709
1788030613.883484,-83.0,-456.0,3759.0,-24.36783132000017,-55.47351831000004,-91.9141959400002,346.43300106498646,735.1219038460507,-498.44845003324076,-856.8661123783571
1788030613.9821448,-1240.0,934.0,5100.0,-23.779089880000168,-56.025806130000035,-91.3254959400002,346.059108514238,677.5473485065584,-563.60504293639,-891.4088629383185
1788030614.0482924,-314.0,-262.0,3172.0,-24.079063120000168,-55.48141025000003,-92.0032132600002,346.8000948922521,667.8110825030249,-492.2534533379058,-899.7536465723051
1788030614.1065009,730.0,-329.0,3235.0,-25.153894570000165,-56.11456025000003,-93.5248330100002,345.9706046618309,737.1211546415717,-466.277217471361,-867.3253449015604
1788030614.1807625,-272.0,293.0,3280.0,-25.807950840000164,-55.56916008000003,-92.9934481000002,345.1063021891914,719.0036780508335,-489.07996125757586,-873.4091643800889
1788030614.2471058,113.0,-400.0,4325.0,-25.377422840000165,-55.42750248000003,-92.82679210000019,345.8563021891914,750.235791968313,-483.5426575680699,-887.9887927543314
1788030614.3111856,-378.0,379.0,4517.0,-25.369155490000164,-55.995049320000035,-92.3621642300002,345.4324556136308,703.21807473433,-521.3055270113111,-866.7478031062258
1788030614.3720193,553.0,-1079.0,4067.0,-25.210961020000166,-56.28935305000003,-93.0942071500002,346.4556616767575,723.5901186851047,-535.125268216776,-915.2487832414284
1788030614.4381342,-683.0,-165.0,3029.0,-25.642682520000164,-56.25871475000003,-94.7820989500002,347.2056616767575,741.7250360063289,-524.1977053435603,-861.560170178518
1788030614.5020766,472.0,-536.0,4304.0,-26.445664280000162,-56.74615303000003,-94.8608887100002,346.51148190527215,764.4150391797549,-556.0497158770094,-865.2670863804061
1788030614.577145,-822.0,-179.0,3092.0,-28.181602050000166,-55.97489625000003,-94.0652759900002,347.4031745490805,758.3572732808226,-507.31921044535596,-882.7389673166106
1788030614.6435375,-927.0,17.0,4275.0,-29.252379450000166,-55.30920570000003,-94.3095320300002,348.9031745490805,773.0247176216673,-457.20712655789794,-919.6461441596874
1788030614.7080896,25.0,-335.0,3772.0,-29.277331860000167,-54.87669726000003,-94.2540822300002,349.6531745490805,814.4640134634891,-440.8490448746381,-973.2570041185907
1788030614.7902167,-616.0,1459.0,4013.0,-29.196989290000168,-55.104272020000025,-94.19033134000018,348.80163663560097,847.4531392210225,-449.64716496670826,-999.6741909582561
1788030614.857456,-46.0,-366.0,3440.0,-29.06106371000017,-55.936480600000024,-93.86855618000018,348.8985714582029,826.2053235787133,-555.753296338516,-950.9163087259742
1788030614.9153812,-453.0,-109.0,4280.0,-29.56605183000017,-55.68953586000002,-93.79641502000018,348.71998279781695,737.6793510058249,-540.876115855648,-851.1317501551857
1788030614.9944987,1248.0,-509.0,5380.0,-30.21806606000017,-55.52307201000002,-94.47069394000019,348.3228246866479,818.4111446165904,-503.70267610895996,-892.5135748927622
1788030615.0601072,563.0,-1348.0,3444.0,-31.20015332000017,-54.66577795000002,-93.59121506000018,349.2235161329065,1025.8953626743532,-509.3075387013564,-912.2461102588248
1788030615.12591,-1174.0,226.0,3839.0,-31.37984878000017,-54.33920639000002,-93.31748272000019,349.91707439930275,765.4132149040147,-483.25560248778305,-905.2779123302257
1788030615.1934114,-291.0,-553.0,3983.0,-31.26049325000017,-54.272589350000025,-93.20923003000019,350.66707439930275,770.5754083815768,-468.2891695497912,-850.9039967706673
1788030615.2597895,-442.0,108.0,4017.0,-30.69413550000017,-55.12216486000003,-91.86742194000018,349.88896525579855,725.0162247048547,-459.8547696656294,-895.9382197862014
1788030615.324601,-1189.0,-1089.0,3067.0,-29.90025759000017,-55.54694698000003,-92.05068642000019,350.3116811054024,726.3457298485187,-565.8217619862579,-845.6999682597195
1788030615.4102783,2125.0,-776.0,4916.0,-31.45087484000017,-54.666460730000026,-93.77525717000019,349.7174259595584,858.8467354951912,-521.2480412476264,-869.0292153694642
1788030615.4785833,2077.0,34.0,5583.0,-32.70016484000017,-54.38606453000003,-93.20613617000019,348.9674259595584,793.247514207742,-501.52322909321623,-821.716032504406
1788030615.543302,-461.0,449.0,4785.0,-33.42480652000017,-53.39484108000003,-92.89792393000019,349.75586469168286,860.7686419810061,-467.5787910041413,-859.5912492803466
1788030615.6361835,-366.0,-543.0,4964.0,-32.62420000000017,-53.617372340000024,-93.08993204000018,351.74846068222763,808.5708835109422,-438.3907315638219,-916.3232038434305
1788030615.705545,-212.0,334.0,3732.0,-32.47978664000017,-53.91730778000002,-93.01217100000018,351.1584511361588,788.834325267552,-452.8572232499056,-929.7016129254326
1788030615.7733722,-740.0,-77.0,4862.0,-32.53826345000017,-54.067485920000024,-93.74118362000017,351.0326238060776,826.7190875518487,-511.7860872732519,-904.7747313503113
1788030615.8377721,696.0,-879.0,4244.0,-32.91962898000017,-53.74179419000002,-94.11976546000017,351.7826238060776,834.8954163924593,-512.1505828974476,-865.0392142997406
1788030615.906043,-1033.0,647.0,3887.0,-34.36844754000017,-53.21619359000002,-93.98067406000017,351.4366744340133,861.543405901677,-432.5078275710238,-949.4716654158955
1788030615.9751623,-11.0,-388.0,3858.0,-34.13819724000017,-52.288795160000014,-94.04466946000016,351.4366744340133,836.4568557253258,-414.9931703769117,-960.1108594540749
1788030616.0429454,-427.0,-124.0,4056.0,-34.41319917000016,-52.530428090000015,-94.08093681000017,351.89084942157666,835.6870049049495,-449.89007478314574,-886.672824381113
1788030616.1072495,-83.0,71.0,3532.0,-33.991748770000164,-52.50824649000001,-94.20016291000017,351.94407874715785,831.9900297099281,-438.28399473787204,-911.2360131193948
1788030616.159173,608.0,221.0,4987.0,-32.998697550000166,-54.01430545000001,-93.45633549000017,350.44407874715785,790.0575137052593,-441.81391129572614,-897.9054595834194
1788030616.2114804,109.0,-2571.0,4492.0,-32.66312462000017,-54.06977205000001,-92.75468300000017,351.19407874715785,773.6613972108773,-514.9251299320488,-935.5823793380376
1788030616.2721257,180.0,-1017.0,2740.0,-33.846263780000164,-53.30586737000001,-92.75753137000018,351.19407874715785,747.2780500766494,-476.462939969604,-875.1030988776487
1788030616.322369,57.0,569.0,5249.0,-34.17636502000016,-52.950800490000006,-92.91564709000018,350.44407874715785,757.1366267508258,-478.43792487602644,-877.4608454692174
1788030616.391787,-420.0,1045.0,4224.0,-34.22912080000016,-52.98134331000001,-92.82679525000017,349.69407874715785,739.2636173573145,-461.27559776683114,-850.1376925105542
1788030616.4606893,-1334.0,145.0,5002.0,-34.02372890000016,-52.64013776000001,-93.07089225000017,349.9562640146178,733.1409686190584,-467.282722956405,-872.5742553973907
1788030616.5306623,679.0,-97.0,3976.0,-34.12638481000016,-52.41006274000001,-92.82663348000017,349.97169716236283,778.7880930888008,-437.14360957387527,-955.7760384774484
1788030616.584484,52.0,392.0,4289.0,-34.13195611000016,-52.869694990000006,-91.93522548000017,349.22169716236283,734.6458603364812,-460.6622379608605,-911.0811630311176
1788030616.6732824,645.0,-1237.0,3408.0,-34.82623795000016,-51.06662932000001,-93.65196946000016,349.97169716236283,792.314727528323,-423.023071106712,-913.734107776266
1788030616.7371633,3180.0,1957.0,9119.0,-36.411687970000166,-51.466462600000014,-93.22992322000016,349.22169716236283,857.352137788367,-382.2660867291358,-913.1734740547793
1788030616.7897086,195.0,576.0,2518.0,-37.266692890000165,-51.744061600000016,-92.12507920000016,348.47169716236283,862.4076897007872,-428.752624025184,-913.0205552327869
1788030616.8842876,-706.0,44.0,4054.0,-36.75870037000016,-51.538527320000014,-91.92778224000016,349.4413856798428,724.3095896541344,-404.7265004224308,-928.3819470786328
1788030616.9477513,420.0,-98.0,5305.0,-36.49769809000016,-51.60516620000001,-91.35024528000015,349.48393992998666,755.517385576282,-417.7797172587368,-944.6130966554274
1788030617.0135157,-948.0,23.0,3909.0,-36.044810830000166,-52.105308080000015,-89.31344478000015,349.9255345824633,700.0556548288732,-426.65708910149834,-923.1715700315972
1788030617.0754995,-263.0,206.0,4569.0,-35.34412483000016,-52.455709040000016,-89.51627664000016,349.4813909553693,666.5817486876898,-425.3413731306019,-873.823393912142
1788030617.140862,-540.0,-1419.0,3531.0,-35.869403710000164,-52.071634160000016,-89.73090672000016,350.2313909553693,737.0391447377121,-462.6734842080341,-914.84919174214
1788030617.2068613,77.0,641.0,6090.0,-37.34422797000016,-50.29212552000001,-92.89940205000016,350.7828294237279,803.1319494427013,-365.460867684767,-973.3303486096163
1788030617.2591443,1118.0,-1693.0,4713.0,-37.08456801000016,-50.09323704000001,-92.52372381000016,351.5328294237279,850.7124240797742,-399.89133986471944,-912.6385742899249
1788030617.327304,-346.0,15.0,3348.0,-37.057150550000166,-51.23707778000001,-90.67032597000016,351.8467809519341,809.210050041288,-388.3734542401203,-953.3609491836329
1788030617.3940647,-69.0,114.0,3758.0,-37.89297967000017,-50.93736158000001,-90.80927065000016,352.3695390803026,835.210856840063,-427.5925903679505,-942.5697512653517
1788030617.4593995,-555.0,32.0,4417.0,-38.47210822000017,-50.49400958000001,-90.19134880000016,352.849825711444,757.7106079691317,-397.62736960781365,-893.7756315958228
1788030617.510127,-605.0,414.0,4037.0,-38.793531560000176,-50.998469760000006,-90.94278039000015,353.2434370392095,813.8277025068045,-404.47554170327584,-894.0993548945477
1788030617.5789044,-193.0,197.0,4643.0,-39.007029460000176,-50.89310716000001,-91.48622959000015,353.20707374099266,866.244454692445,-431.5549609971598,-938.7822821141223
1788030617.6448135,-2354.0,1967.0,5105.0,-39.661856150000176,-50.28580851,-94.26833815000015,354.2424836798873,882.6663305701256,-387.0052177090222,-937.3741136335848
1788030617.7129672,32.0,9.0,3059.0,-41.09277207000017,-49.00984431,-92.01321864000015,354.09058896900524,836.6202428233105,-364.02290884080327,-989.8241176328232
1788030617.7815077,-338.0,-17.0,4308.0,-41.070585990000176,-48.80184981,-92.44307394000015,354.84058896900524,811.6609713844718,-344.76827110208933,-969.4324376078864
1788030617.8321674,-763.0,348.0,3555.0,-41.00082784000018,-48.47104318,-92.25726755000014,355.92573783790294,845.5032563033836,-336.2162628766694,-974.1387824096015
1788030617.8869205,-292.0,1323.0,5409.0,-40.653312840000176,-48.49884438,-92.47411691000013,355.17573783790294,861.9213084072787,-336.76107675520217,-912.0269550591007
1788030617.9469957,-1170.0,276.0,3033.0,-39.43443434000017,-49.86739373,-92.47100072000013,355.3921524705695,813.7611142023051,-375.22794859053243,-922.6833021827613
1788030618.0114439,-1054.0,-401.0,4384.0,-38.34099766000017,-50.14491573,-93.16758094000014,356.1421524705695,819.6325230338053,-424.16286807799503,-886.0185631198087
1788030618.0793226,407.0,-12.0,3668.0,-37.89415322000017,-50.39197219,-95.49905974000013,356.5299886153857,902.3890793172494,-365.65944572621726,-890.2649451391819
1788030618.148541,469.0,842.0,4325.0,-37.44857228000017,-50.93551085,-95.04670140000015,356.34735382568607,839.3127923611278,-385.95643777100463,-869.2055731740235
1788030618.2126408,124.0,621.0,4124.0,-37.51479956000017,-50.95482714,-94.46721270000015,355.59735382568607,828.8024665598392,-354.13880707405787,-952.0330412404799
1788030618.2773957,-651.0,-498.0,3715.0,-37.13213532000017,-51.108287579999995,-92.75197064000015,356.1218545080525,788.9175786419792,-402.59331616430615,-892.7285211657791
1788030618.3594902,-1895.0,522.0,3737.0,-38.43251706000017,-49.557863039999994,-92.68248367000015,357.4690939198946,801.6383914736441,-354.69882213759183,-916.7194203677749
1788030618.4246724,866.0,-592.0,4235.0,-38.62715906000017,-50.08356395,-92.66311264000015,356.8858453141893,803.8781149774798,-407.33221186710693,-923.658953025223
1788030618.4928699,1108.0,-120.0,6311.0,-39.565822240000166,-49.458714199999996,-93.08801047000016,356.1358453141893,767.2575130029152,-371.2551067027195,-937.4822854430021
1788030618.5632563,-601.0,748.0,3326.0,-39.28517446000017,-48.939055339999996,-93.02689179000015,355.60718495409355,827.6363538919928,-348.31164722319284,-917.314856474671
1788030618.6314418,-294.0,1014.0,3865.0,-38.56209938000017,-49.47257434,-93.88021762000015,354.75501007287806,862.2603349629961,-342.03365730018754,-999.6791044425064
1788030618.6971283,31.0,-218.0,3839.0,-37.558760750000175,-49.51402141,-93.08498815000014,356.1800584619087,855.5634025337182,-343.32042919223596,-980.1132400385084
1788030618.7685502,-428.0,78.0,3540.0,-37.59755895000018,-49.982371109999995,-92.68869225000014,356.4585026291439,809.8011583241292,-365.90426285646134,-927.1165704202908
1788030618.8356056,-947.0,1637.0,6175.0,-37.597649250000174,-50.30153436,-91.86515121000014,355.35286857657917,780.2998236755624,-351.35974243375495,-953.0090395145613
1788030618.9019985,-1186.0,1376.0,5698.0,-38.58966867000017,-49.54259982,-91.40687787000013,355.6073178681869,743.068670127612,-307.4706094461901,-923.9434739823782
1788030618.9707823,-611.0,1346.0,2936.0,-38.50648977000017,-49.19324844,-91.31260845000013,354.8573178681869,736.334330900719,-344.0446195043279,-891.2585076068484
1788030619.040263,-63.0,168.0,4566.0,-38.617639690000175,-49.39868919999999,-91.82290621000013,354.0338453806274,790.6000355861788,-373.226350132163,-931.4580323449622
1788030619.1073475,-477.0,358.0,3526.0,-38.06205361000018,-50.13489928999999,-92.18402991000012,353.7536346837561,765.3834172584637,-379.65604561476687,-926.3389491201767
1788030619.1907096,-1056.0,761.0,3795.0,-37.22691329000018,-51.23807450999999,-93.16306265000011,353.7357606762037,796.7601295175573,-380.62966748226455,-1009.3677504081013
1788030619.2410412,1331.0,-253.0,3667.0,-36.88998369000018,-50.28764110999999,-93.31203385000012,353.20374340762515,780.8121846562382,-308.93821820025863,-956.174368640709
1788030619.3067858,672.0,1260.0,5419.0,-36.599850770000174,-50.40064784999999,-93.22049660000012,353.20374340762515,781.2199893627077,-301.3022966002684,-895.9867452624851
1788030619.4019837,-639.0,34.0,3663.0,-35.264563180000174,-50.808834299999994,-92.90427902000012,353.81774831508847,789.7974269912734,-406.40320581762967,-922.8828141772701
1788030619.4683523,-104.0,1168.0,3645.0,-34.702026100000175,-50.61301175,-93.49007577000012,353.0771098206207,793.2352452769263,-375.19712300743555,-938.8933638081992
1788030619.532672,-581.0,1153.0,4497.0,-34.15248046000017,-51.24260183,-94.65433481000012,353.0771098206207,772.6561409265399,-366.0552145312912,-936.9184580817202
1788030619.5962985,731.0,242.0,5245.0,-34.32984814000017,-51.51973883,-95.83216706000012,352.3271098206207,768.8807870618784,-355.8413018389688,-927.6699406637991
1788030619.6623726,536.0,-633.0,3077.0,-34.11809247000017,-50.559926620000006,-94.65472604000013,353.8271098206207,780.590753588268,-335.4827282130183,-890.1518858159787
1788030619.734124,96.0,492.0,4573.0,-33.092462410000174,-50.114015280000004,-93.63546934000013,352.9895617334832,760.439722484196,-357.07338762353345,-914.4008934314188
1788030619.820792,-602.0,-104.0,3490.0,-31.608624950000173,-51.22837846000001,-92.96768096000012,353.6908738859757,705.2801892380489,-396.87762306578844,-900.907247710813
1788030619.8866448,-818.0,-700.0,3353.0,-30.460022250000172,-52.02969506000001,-93.15431335000012,353.6908738859757,686.8794468532438,-364.4812692079777,-945.8525742981486
1788030619.949942,-255.0,-1857.0,3461.0,-30.657072810000173,-51.08884802000001,-94.51979047000012,354.4408738859757,747.3473728284255,-415.69547777588986,-951.4840882667747
1788030620.0346394,201.0,2083.0,5433.0,-31.416938070000175,-50.11565678,-94.18994284000011,352.9408738859757,803.2606695681804,-410.8728830141622,-980.2197470231333
1788030620.0996726,1448.0,459.0,4588.0,-32.280361400000174,-50.22893449,-94.8061364600001,351.4408738859757,829.1898154402697,-368.696529538974,-1041.4277769132152
1788030620.163095,-1374.0,-122.0,4491.0,-31.514566370000175,-50.0914841,-93.82434796000011,352.1908738859757,795.9347600638387,-332.06322037306217,-1007.9491798294532
1788030620.2473538,-541.0,-257.0,4693.0,-30.200724400000176,-50.60206564,-92.92538472000012,354.22688824841254,760.5029436316846,-418.1583079799723,-905.6129613257731
1788030620.3137245,-964.0,-142.0,4761.0,-30.425488870000176,-50.85735368,-93.25281938000012,354.95151428993114,694.02759321341,-365.0177766627532,-890.5310205506655
1788030620.3652194,272.0,-213.0,3054.0,-31.025314390000176,-50.01870874,-94.53022558000012,354.96547288243505,797.9530524997042,-411.2411201153368,-948.8662296621711
1788030620.4288354,834.0,-277.0,3874.0,-32.520925430000176,-49.66869544,-95.38915218000012,354.48659538235216,843.5429582487616,-364.76352548927184,-1013.0370481030852
1788030620.4983716,-867.0,793.0,3389.0,-33.319085310000176,-49.96212886,-95.17287024000012,353.8201200910198,817.2266560358079,-342.29169871659553,-1004.473494407014
1788030620.5659664,1127.0,1769.0,4464.0,-32.90844578000018,-50.47198331,-95.17562621000012,353.0701200910198,849.0142264924312,-350.25825471196237,-1012.564285828581
1788030620.6321328,-33.0,520.0,4970.0,-30.55245473000018,-51.2039507,-94.30947918000011,352.82638416833134,759.5017640051066,-393.0241548098109,-936.8464309838675
1788030620.7013412,-71.0,-461.0,3891.0,-31.018125880000177,-51.20391066,-93.99931233000011,354.32638416833134,758.5785282558335,-409.3397424468594,-1154.0220760537795
1788030620.768785,662.0,-926.0,5325.0,-31.94357684000018,-50.6114784,-95.22446696000011,354.32638416833134,844.3307229874662,-347.5975745416405,-973.9669993144943
1788030620.8226688,349.0,104.0,4432.0,-31.76039384000018,-50.908456900000004,-94.44177596000011,353.81592724702654,784.7596678707973,-374.02334716879056,-957.6124896988898
1788030620.8896165,-227.0,358.0,4919.0,-31.26668496000018,-51.33899918,-94.07241984000012,353.3154541306907,809.1204421785993,-391.65942447860607,-935.9713874040664
1788030620.9409251,-34.0,-274.0,3888.0,-31.00060656000018,-50.887220230000004,-93.27972794000013,354.0654541306907,753.2674672393317,-344.1499453802,-968.0102159184981
1788030621.010784,1277.0,1868.0,6526.0,-30.64589808000018,-51.19770915,-93.41566710000012,353.95750815346935,757.726997768616,-413.2797330867905,-977.6592947972608
1788030621.1072567,590.0,735.0,5190.0,-30.61007250000018,-51.34759854,-94.23881187000012,353.95750815346935,838.5728767592938,-406.55175809296315,-974.9214985291151
1788030621.178732,-900.0,850.0,3197.0,-31.12843790000018,-51.358545140000004,-93.57012427000012,352.760913403064,735.3241887183596,-376.0435353735117,-994.1126541250509
1788030621.2324746,76.0,-7.0,4501.0,-30.40397122000018,-51.510627840000005,-94.03743293000012,352.84109624365425,761.1370925064189,-383.8038173403391,-927.8902018348666
1788030621.301685,137.0,270.0,4567.0,-30.46445136000018,-51.97188073,-93.43384827000013,351.81433485169515,746.3647728475846,-364.0575928269863,-947.3453956528914
1788030621.3774712,-448.0,970.0,4522.0,-30.30365478000018,-52.60421677,-93.19816548000013,351.6449229389711,750.8823089513471,-408.9154513511608,-906.0765201991925
1788030621.4454572,368.0,-77.0,2701.0,-30.51421646000018,-52.64294924,-93.78330941000013,350.93738775797954,795.1825974800895,-396.5555310836903,-970.7697776875968
1788030621.5090263,484.0,-516.0,4516.0,-30.56141305000018,-52.14599691,-93.73056028000013,351.68738775797954,801.2052344119085,-403.8154492979505,-964.6440574046687
1788030621.5770795,-182.0,-20.0,3806.0,-30.30348979000018,-51.33634149,-92.81486788000014,353.0028145221269,766.3390639741801,-373.3006847328834,-940.1520444988334
1788030621.6423573,-385.0,1718.0,5041.0,-29.640484090000182,-52.00254024,-91.67374258000014,351.5028145221269,731.3967815040791,-399.41735367457795,-937.0468579202668
1788030621.7348464,302.0,-328.0,3507.0,-29.870079960000183,-51.98623892,-92.56403191000014,352.6372826641106,779.7943949263072,-431.12624840278335,-937.6211974189848
1788030621.799969,-1217.0,926.0,3897.0,-30.782360910000182,-51.800652469999996,-94.54847332000014,352.4303531895396,834.7844340923491,-413.03456304091804,-950.9023579371096
1788030621.864628,4188.0,-1486.0,7735.0,-31.106815950000183,-51.40409630999999,-94.76200356000014,352.98715462843614,865.4830766689404,-384.3500213498665,-1004.0298247879253
1788030621.9330533,-2327.0,-408.0,3898.0,-30.80242697000018,-51.05183187999999,-93.53819671000015,352.98715462843614,753.8139228271866,-366.0891933986532,-945.9148768474871
1788030621.9881716,268.0,689.0,4248.0,-30.26935625000018,-50.62426473999999,-93.75475669000015,352.23715462843614,761.1340390153587,-369.1749616124797,-942.6405883230002
1788030622.0523825,-855.0,820.0,3993.0,-29.34406209000018,-52.00990941999999,-92.88598431000015,351.02192696582,763.5322914834593,-438.8228320071133,-904.675212745351
1788030622.1341822,-921.0,-1038.0,3962.0,-29.120082600000178,-51.81547398999999,-94.33351095000016,352.52192696582,748.8182249052442,-412.52490370273944,-957.0758787464017
1788030622.2003813,51.0,147.0,1996.0,-29.78617243000018,-51.687750589999986,-92.25944581000016,351.1042733782583,745.0420457912825,-394.22372073060336,-930.5491013216421
1788030622.2505043,-728.0,450.0,4258.0,-30.386775510000177,-51.46459072999998,-92.50464615000016,351.408491934452,710.6283711505174,-360.36227586919875,-928.9476043236955
1788030622.3179693,142.0,474.0,5594.0,-29.180700360000174,-51.16406518999998,-92.99191286000016,351.4948305452006,663.0757411876789,-327.82591143689723,-908.3341806755301
1788030622.384981,537.0,-543.0,3085.0,-27.660012240000174,-51.82713640999998,-92.29534265000015,351.4948305452006,690.1729692699987,-412.295169406518,-919.1015921796245
1788030622.4515193,-687.0,606.0,3930.0,-26.969975970000174,-52.47837545999998,-91.64964606000015,350.91958239777716,693.686272256123,-417.39001903267183,-923.8165728721538
1788030622.5202231,-2872.0,598.0,3945.0,-27.641130090000175,-52.381861489999984,-92.22531346000015,352.41958239777716,635.9757124982729,-397.5581171366836,-881.5108877040178
1788030622.588837,1674.0,-384.0,5693.0,-28.254469180000175,-50.63897936999999,-93.41313758000015,352.16190656302564,677.9460535218243,-296.78605178400034,-901.2330382856127
1788030622.6556578,1012.0,1473.0,3860.0,-28.950057500000177,-50.85787272999999,-92.60408276000015,350.66190656302564,707.2970898746896,-345.60411610253783,-860.3979341866782
1788030622.7253602,-615.0,670.0,4627.0,-28.290571400000175,-50.37018552999999,-92.69829506000015,349.99249762476074,712.6484682290425,-356.9265776823873,-959.2332070583925
1788030622.7854564,216.0,536.0,4871.0,-27.544761860000175,-50.33779764999999,-92.03786249000015,350.38469092678986,750.1923773660617,-322.9733626153841,-1017.3582819986276
1788030622.852957,-112.0,-700.0,5381.0,-27.481248970000177,-51.21317095999999,-91.22047921000015,351.13469092678986,702.8090873392695,-367.5125865914061,-942.1453106646408
1788030622.904937,-618.0,-1125.0,2605.0,-27.692417130000177,-49.89786115999999,-93.93427617000016,352.63469092678986,709.8297458512894,-400.76652990515333,-921.21838344323
1788030622.9700174,-402.0,1980.0,8240.0,-27.842252550000175,-50.06434495999999,-93.14347812000015,351.95532025850525,837.1288845855177,-351.2072141167926,-930.6039116575295
1788030623.0260668,-1016.0,-138.0,2843.0,-28.394697660000176,-49.20941396,-92.71636311000016,351.9897742358684,702.2984814125111,-410.6199237273445,-971.854625320692
1788030623.0797331,106.0,1354.0,6041.0,-28.689796170000175,-49.6175876,-93.22658016000015,351.2397742358684,755.9735621962068,-336.129526747149,-942.6619686863138
1788030623.1500218,742.0,39.0,4277.0,-28.692576780000174,-49.77052115,-93.10701393000015,350.9409756700061,811.2593782154396,-366.1731765006134,-998.4374117783649
1788030623.2176886,217.0,756.0,4021.0,-29.69245944000017,-49.96538001,-92.69568511000014,350.28602342285313,736.5917161851027,-367.05796698877504,-963.2130897851408
1788030623.283429,-921.0,393.0,4779.0,-30.55963638000017,-49.45998708,-93.28945276000015,350.7599475001345,785.5881953708931,-421.7299223486673,-942.5987975579262
1788030623.353154,1146.0,439.0,5740.0,-32.31311608000017,-48.932027899999994,-94.06464914000014,349.2599475001345,874.8317297148346,-404.3106606234611,-967.8298432954181
1788030623.427714,-118.0,176.0,3917.0,-32.321630390000166,-48.474321489999994,-93.66525980000014,350.7599475001345,843.1963171631471,-347.26764597752054,-1005.8744544292357
1788030623.4947333,-907.0,2.0,4083.0,-31.43166194000017,-48.16933722999999,-93.01648622000013,351.6503137637951,779.2887132930783,-342.0624349745452,-953.0396232789598
1788030623.5490859,-33.0,224.0,4132.0,-31.24917656000017,-47.74077307999999,-93.29021429000014,352.0936749457321,762.8197585612522,-323.45939599382604,-963.2559605510935
1788030623.6221032,20.0,353.0,4212.0,-30.544942330000172,-47.47616747999999,-92.70163336000014,352.1355625590185,743.4558760572185,-288.8193788625264,-927.7929069081481
1788030623.6953163,7.0,477.0,3673.0,-29.939944370000173,-48.23102731999999,-92.29645124000014,351.5023664003545,761.2568612693512,-354.3518101717864,-975.6670072498282
1788030623.7464163,-1203.0,-388.0,3340.0,-28.609022610000174,-48.69892488999999,-93.36806234000014,353.0023664003545,703.4250252007922,-381.00632793330357,-936.5732994000191
1788030623.8328118,216.0,20.0,4278.0,-28.035120750000175,-48.886215489999984,-92.40631526000013,353.4407598111808,748.348970676271,-378.8747203173115,-913.5231136827679
1788030623.8979778,112.0,658.0,3371.0,-27.971280960000175,-49.148716679999986,-93.17617505000013,353.4407598111808,772.1851700391564,-380.41689894918596,-947.7182282143314
1788030623.9650595,428.0,85.0,4534.0,-27.971280960000175,-48.96365396999999,-92.76461768000013,353.08137556406734,761.4074236422615,-356.9114941359289,-929.0701044402776
1788030624.0541868,1113.0,-732.0,4916.0,-27.857637570000175,-49.360019939999994,-93.20810408000013,353.08137556406734,779.4793177333962,-385.91864712919744,-911.5389408787198
1788030624.1195958,-461.0,725.0,3543.0,-28.667787330000174,-48.895135169999996,-93.55227182000012,353.08137556406734,792.7929277420101,-380.4271829842161,-1031.069160309494
1788030624.1896625,1502.0,501.0,5362.0,-30.497483450000175,-48.44352723,-93.44356112000011,351.58137556406734,806.7019595661611,-332.3407453030876,-974.7524052400163
1788030624.2589886,-1569.0,1214.0,3567.0,-30.283673420000177,-47.91311616,-91.9995076000001,352.54915556171545,712.9832639829415,-337.2515344854898,-962.175932639084
1788030624.3256953,-126.0,623.0,4530.0,-31.312399580000175,-48.40376758000001,-93.3610459600001,352.50581573273314,823.619322243956,-355.85843329416633,-988.2624628200226
1788030624.3887756,456.0,-303.0,4323.0,-31.824067030000176,-48.163145590000006,-92.9987300900001,353.25581573273314,791.5848088422049,-363.59513735476907,-961.7438638151319
1788030624.44383,-60.0,-390.0,3900.0,-32.05556851000018,-48.604100790000004,-93.6050434900001,354.00581573273314,810.1991202589421,-339.50345684165944,-979.447149246595
1788030624.5102992,-115.0,614.0,3728.0,-32.00571115000018,-49.403928490000006,-93.6542483100001,352.63187461422797,804.6624575925987,-354.19290498882765,-962.5607047704586
1788030624.5762107,-1281.0,-1170.0,4238.0,-30.98427031000018,-50.17708948000001,-93.5399986500001,353.32081740122453,731.4692127134903,-421.08943038306654,-940.5016754700005
1788030624.644893,2814.0,846.0,5953.0,-32.52983342000018,-49.21599424,-95.1858615400001,352.24868308844015,872.0828032767002,-393.23892319811665,-941.2927187922105
1788030624.7080448,94.0,1094.0,3752.0,-32.99830142000018,-48.96374224,-94.4013855400001,351.49868308844015,794.7351193387377,-384.2394246959595,-962.6397666108172
1788030624.7735922,302.0,713.0,4216.0,-32.68240374000018,-48.850264609999996,-94.8030748000001,351.49868308844015,790.619545036533,-339.3211609760495,-911.6822538483448
1788030624.8236213,-259.0,32.0,4051.0,-32.15791362000018,-49.37197964999999,-94.4617399600001,352.24868308844015,773.6433515349596,-331.98813188757316,-931.8118905939618
1788030624.8917568,-163.0,431.0,4530.0,-31.71271068000018,-48.764249729999996,-94.75883347000011,353.70701080471105,1073.6143398641545,-388.9941334453007,-918.7710119704197
1788030624.955317,-300.0,809.0,3467.0,-31.547398680000178,-49.15824333,-94.63209427000011,352.95701080471105,797.2969680154567,-371.9395782401147,-951.02389674896
1788030625.0224373,-286.0,-1190.0,3900.0,-31.915424660000177,-49.38557918,-94.25537597000012,353.0025149561423,782.6669304722272,-386.7644239614833,-927.2358218774152
1788030625.0843906,-682.0,1343.0,5243.0,-33.10960268000018,-49.452071409999995,-96.2980996600001,352.58177085349746,848.2041244940135,-374.8360862420567,-937.3937828092646
1788030625.1373343,1263.0,-439.0,3653.0,-33.99709173000018,-48.27901805999999,-95.71857211000011,353.24447901348833,857.299953294361,-369.37782127011076,-763.5000499170425
1788030625.2020478,717.0,100.0,5761.0,-34.800250520000176,-47.619240549999994,-95.81532926000011,353.65961691673186,899.5144200848864,-387.9909570622867,-930.9970909442455
1788030625.2669253,-173.0,554.0,3658.0,-34.309276680000174,-47.238597909999996,-95.58639202000012,353.4789995561795,857.744361373585,-347.9520694614037,-931.7834118116581
1788030625.3315885,280.0,676.0,4388.0,-33.50553318000018,-47.668165859999995,-95.01257647000011,352.4620586237421,813.0999075071293,-367.0779210565636,-911.7623406699194
1788030625.3835278,304.0,6.0,4658.0,-32.61576612000018,-48.153241359999996,-94.13112499000012,352.72338835154864,807.5928279978704,-365.23428738524626,-991.8483063378271
1788030625.4660292,-1066.0,-682.0,2413.0,-32.091954160000185,-49.05380619999999,-93.20008005000011,352.72338835154864,726.0023459867655,-380.8671888821243,-935.092930105819
1788030625.529963,-284.0,32.0,3486.0,-32.95593819000018,-47.81249654999999,-96.07876502000012,353.9243228198088,776.1466334651087,-372.70617219430426,-892.2961772435132
1788030625.5802872,697.0,162.0,4165.0,-33.45478479000018,-48.280858079999994,-96.24227585000013,353.5374400004136,874.5471820546928,-354.28152262259687,-908.9134163448552
1788030625.6305175,-989.0,1632.0,4077.0,-33.532285150000185,-48.03728552,-96.28656177000012,353.03153727279425,893.1024535370178,-377.3519563264595,-963.6201485648979
1788030625.6924918,-49.0,122.0,3811.0,-33.17503084000019,-48.32966446,-96.22585399000012,353.89583529799677,851.8555667781734,-354.9526522352854,-957.877159107734
1788030625.7518227,417.0,670.0,4606.0,-32.99510011000019,-48.51830886,-96.27268938000012,352.8972051062313,850.6217268905766,-358.2568119634182,-939.5102903177346
1788030625.8027074,231.0,1348.0,4827.0,-33.266948190000186,-48.91498514,-95.76505470000012,352.1472051062313,814.5644434911937,-365.62709084206426,-950.2186565887699
1788030625.8696182,-252.0,352.0,3527.0,-33.244682030000185,-48.92890149,-95.56465926000013,351.7917383054791,784.248709882581,-414.89918657051896,-905.1402540709316
1788030625.9422908,-1148.0,-13.0,3269.0,-33.538934730000186,-49.05373816,-96.25039375000013,352.5617335861132,793.7945805564306,-411.4171086999811,-934.9324003742288
1788030626.0078807,2126.0,1481.0,6033.0,-34.490254680000184,-47.92482541,-98.07004627000013,352.5617335861132,875.9755547117101,-334.2502902252608,-944.8013853730998
1788030626.0733478,-920.0,526.0,2970.0,-35.33899362000018,-47.71364717,-97.43053908000013,352.911745557465,805.8801551868522,-352.95660717311296,-980.9073368745073
1788030626.143215,874.0,111.0,4406.0,-35.574787500000184,-47.78101685,-97.81510767000013,353.05317358648847,902.1267643615037,-323.7071548000751,-947.2709462280046
1788030626.2003286,-437.0,709.0,3244.0,-36.00830100000018,-47.37264861,-96.33473409000013,352.49072296833117,838.9667124476051,-339.7146006790934,-940.860777321227
1788030626.2688608,-617.0,1427.0,5691.0,-35.40924485000018,-47.586343629999995,-95.98062173000012,351.8777455207248,845.2712617697733,-320.41989053761876,-1001.6743655510828
1788030626.321679,-629.0,833.0,3444.0,-35.39812941000018,-47.872566209999995,-95.19420435000012,351.8967076433948,798.17128712579,-336.8588013261381,-944.0937962280694
1788030626.38554,-306.0,612.0,4083.0,-35.10699521000018,-48.854204839999994,-95.36335844000013,351.8208462563341,740.6090998945973,-361.74267865201136,-974.4470337237985
1788030626.4369159,-837.0,-199.0,3497.0,-35.24559171000018,-49.25059082999999,-95.85953391000012,352.5708462563341,774.1211500984467,-370.4601568623956,-910.4714837233998
1788030626.4922543,153.0,111.0,5710.0,-36.163309070000174,-49.09255490999999,-96.89647135000013,352.663956924507,845.0471842387758,-402.3777257310723,-974.408034147237
1788030626.5555763,-190.0,-441.0,3408.0,-36.68720657000018,-49.14800470999999,-95.04735429000013,352.663956924507,812.0358092057786,-366.38975609570156,-977.4713835978885
1788030626.62045,-363.0,131.0,2950.0,-37.07567857000018,-48.837227109999986,-94.87809149000013,353.413956924507,825.527001012237,-357.2648133827,-951.8212422444168
1788030626.6865041,-239.0,435.0,3783.0,-37.91289985000017,-47.54255526999999,-94.64517923000012,353.74364383605,782.5832151031923,-299.175466964186,-998.3789340555765
1788030626.7541997,-652.0,898.0,4095.0,-38.481016350000175,-47.409532869999985,-94.60915233000013,353.3874183713966,745.5281742008171,-317.38494860331855,-962.3489694508797
1788030626.81699,-683.0,989.0,4343.0,-38.27869493000018,-47.45119840999998,-93.86383104000014,353.3627977719903,753.4673862968891,-333.104586229717,-937.0704069421594
1788030626.881403,-1947.0,915.0,4510.0,-37.13559325000018,-48.766038229999985,-93.61170742000014,353.15562743513084,679.019191169971,-337.7365091170467,-938.357676454423
1788030626.9318504,-574.0,-412.0,3099.0,-36.527881390000175,-48.22769986999999,-95.70123724000014,353.90562743513084,736.364634751787,-351.0875356228409,-1007.1910539892091
1788030626.9955425,2026.0,-109.0,5671.0,-37.04330413000017,-48.45215815999999,-95.46569459000014,353.15562743513084,829.9994224264055,-308.6782472260899,-948.8714269015568
1788030627.0640638,477.0,1331.0,4425.0,-37.756477710000176,-48.069268939999986,-96.12640800000014,353.15562743513084,817.3159118370387,-336.77423074389975,-939.681505902571
1788030627.1302536,-10.0,266.0,3988.0,-38.26456417000018,-47.955385519999986,-95.93433822000014,353.31494309722166,597.7624155862563,-288.77386927724024,-928.8063036104826
1788030627.19531,-546.0,641.0,3874.0,-38.099252660000175,-48.17096080999999,-95.90249004000015,354.1450322585149,816.9009273930074,-289.34494521696286,-928.2282157347363
1788030627.2704284,-467.0,800.0,4232.0,-37.326229780000176,-48.30634682999999,-96.31105876000015,354.5509834064449,753.8359741852513,-292.2594067190306,-889.0648231614633
1788030627.3358893,22.0,554.0,4173.0,-36.876927640000176,-48.91928369999999,-96.33324652000015,354.12974225017985,755.6006885394514,-284.21639934160913,-964.1339140155543
1788030627.4022305,694.0,587.0,4358.0,-36.582435260000175,-49.54160721999999,-95.94707255000014,353.37974225017985,755.7486044493342,-342.18940848644564,-956.2931626268881
1788030627.4975927,-1042.0,-329.0,3326.0,-35.35350616000017,-50.43727632999999,-94.35914530000014,353.9285091194627,721.8055870300018,-340.4324621787011,-948.9375241907647
1788030627.5624804,-995.0,385.0,4901.0,-36.526625800000176,-49.91742986999999,-94.62045054000014,354.514906003962,684.9794322036018,-291.9987772546816,-958.298148283979
1788030627.6264343,-1165.0,92.0,3573.0,-37.14730936000018,-48.900539519999995,-94.80887178000013,355.35224484955717,727.562503453557,-288.8797360047497,-932.3866412007837
1788030627.6935022,83.0,2253.0,6560.0,-38.23991563000018,-48.00206599999999,-95.88205319000012,355.35224484955717,832.9819005346686,-235.21253367000404,-953.3780946497748
1788030627.7617972,577.0,289.0,4320.0,-38.96386438000018,-47.56103974999999,-95.42438444000013,355.5551824020838,849.7250651426976,-249.63937545398602,-946.8695335017568
1788030627.8278234,-520.0,547.0,2878.0,-38.203518220000184,-47.735831569999995,-95.73798976000013,356.5674432791195,816.6497370749936,-260.98757906247096,-970.4939486784008
1788030627.913076,1050.0,859.0,4980.0,-37.44366304000019,-48.81187247999999,-95.85994929000013,355.0674432791195,852.8590242352533,-303.3289800219643,-951.1089520744478
1788030627.979147,-698.0,296.0,4287.0,-37.141226920000186,-48.67878056999999,-97.57961850000012,356.5674432791195,874.257495612555,-316.2908964944073,-982.321325124364
1788030628.0328407,898.0,1354.0,6174.0,-37.799302450000184,-48.062355389999986,-96.98540684000012,355.8174432791195,865.3831806110549,-250.13124555922252,-987.9255213016924
1788030628.1190917,284.0,907.0,4526.0,-38.962643860000185,-47.40150134999999,-97.21910492000012,354.6094645455471,884.4424282614333,-278.2802689573528,-1050.8330929993415
1788030628.192286,-2820.0,900.0,2760.0,-38.776252620000186,-47.657363319999995,-96.52360025000013,356.1094645455471,827.2211053707529,-264.04913383628246,-967.4011041210512
1788030628.2579103,609.0,871.0,4053.0,-38.50144200000019,-47.55762864999999,-96.23462548000013,355.5530150729497,827.0235191102722,-266.1473507776264,-964.6303903709395
1788030628.3216999,-1260.0,489.0,3698.0,-38.38476516000019,-48.20212928999999,-95.56790068000014,356.3030150729497,808.6532566694943,-312.22887102406554,-920.2476374281971
1788030628.3895304,-320.0,802.0,3985.0,-38.68440590000019,-47.805166919999984,-96.11180075000013,356.6346266317656,854.718837295596,-282.1929882675923,-993.4248192620435
1788030628.459048,-433.0,1238.0,4200.0,-38.5789162500002,-47.83837904999998,-96.14507798000014,355.51511111148847,884.3652434736192,-309.10420679290604,-971.0782328042842
1788030628.5419788,-441.0,1.0,4609.0,-37.1350632100002,-48.88237108999998,-96.46718571000014,356.423963486503,836.3868069017334,-301.07454062775565,-979.4394282976714
1788030628.6069362,-361.0,489.0,4481.0,-36.832259030000195,-48.94626554999998,-96.30328253000013,356.47341885380473,865.0157866045184,-320.40819555251096,-989.9879510435342
1788030628.661649,-701.0,559.0,4297.0,-37.354279760000196,-48.45754787999998,-95.24262167000013,355.8797853885469,805.8269197618445,-343.84552428006566,-962.7223695225905
1788030628.7538736,247.0,1035.0,4576.0,-37.30429549000019,-48.663092239999976,-94.62880301000013,354.3797853885469,830.5493881220953,-331.9891210494274,-992.5253753949435
1788030628.8197885,-1286.0,396.0,4845.0,-36.6896966100002,-48.58291115999998,-94.28852720000013,355.49724703552675,746.310343540751,-325.5147394513368,-975.1035823398289
1788030628.8719833,406.0,-267.0,4510.0,-36.928865190000195,-48.13794635999998,-94.74739715000013,355.9846046299431,809.3621033909071,-354.7857232467315,-1001.1782279704959
1788030628.9523745,264.0,857.0,4259.0,-37.91443719000019,-47.61985136999998,-95.02280228000014,355.74355349571516,815.8027894510525,-292.10669117849477,-961.0221415086055
1788030629.0177321,-766.0,415.0,3675.0,-37.78129327000019,-47.30920480999998,-94.19903318000014,355.53249162920014,804.3105347741644,-315.5265843011713,-1002.1771440797148
1788030629.0882301,-658.0,630.0,4197.0,-37.45144529000019,-47.686605329999985,-94.86769320000015,356.03072115070995,812.5049700726696,-283.53157560102125,-991.9727550343372
1788030629.1633463,-961.0,668.0,3626.0,-36.89613984000019,-48.58501780999998,-94.38189635000015,355.56971008358767,789.4400794891949,-313.35749090548825,-923.7329837226665
